branch_failpass,expt_id,group_id,network_error_repeat,participant_id,participation_duration,response_correct,response_mode,response_name,response_rt,response_target,response_type,response_value,session_id,stimuli_presented,trial_duration,trial_num,trial_template
pass,620ddeee49655b42f1242551,Group_JF,0,04cbb73480e16b0dd1318b3b32c0dbaefc83017771f404bf2042f67b6fa133cc,2001.7292289733887,False,click,survey_noise,4071,[],choice-response,2,620ec2cd3f3e26074333ad10,logistics_noise,5864,1,logisticsQuestionnaire
pass,620ddeee49655b42f1242551,Group_JF,0,04cbb73480e16b0dd1318b3b32c0dbaefc83017771f404bf2042f67b6fa133cc,2001.7292289733887,False,click,survey_headphone1,3899,[],choice-response,Yes,620ec2cd3f3e26074333ad10,logistic_headphone1,5392,2,logisticsQuestionnaire
pass,620ddeee49655b42f1242551,Group_JF,0,04cbb73480e16b0dd1318b3b32c0dbaefc83017771f404bf2042f67b6fa133cc,2001.7292289733887,False,click,survey_headphone2,5666,[],choice-response,Wireless Earbuds,620ec2cd3f3e26074333ad10,logistic_headphone2,8751,3,logisticsQuestionnaire
pass,620ddeee49655b42f1242551,Group_JF,0,04cbb73480e16b0dd1318b3b32c0dbaefc83017771f404bf2042f67b6fa133cc,2001.7292289733887,True,click,exampleresponse_s_J,5049,['Shorter'],choice-response,Shorter,620ec2cd3f3e26074333ad10,short_tone_1,8897,4,Pretestexample_s_rv
pass,620ddeee49655b42f1242551,Group_JF,0,04cbb73480e16b0dd1318b3b32c0dbaefc83017771f404bf2042f67b6fa133cc,2001.7292289733887,True,click,exampleresponse_l_F,3995,['Longer'],choice-response,Longer,620ec2cd3f3e26074333ad10,long_tone_8,7700,5,Pretestexample_l_rv
pass,620ddeee49655b42f1242551,Group_JF,0,04cbb73480e16b0dd1318b3b32c0dbaefc83017771f404bf2042f67b6fa133cc,2001.7292289733887,True,click,exampleresponse_l_F,3323,['Longer'],choice-response,Longer,620ec2cd3f3e26074333ad10,long_tone_8,6786,6,Pretestexample_l_rv
pass,620ddeee49655b42f1242551,Group_JF,0,04cbb73480e16b0dd1318b3b32c0dbaefc83017771f404bf2042f67b6fa133cc,2001.7292289733887,True,click,exampleresponse_s_J,2175,['Shorter'],choice-response,Shorter,620ec2cd3f3e26074333ad10,short_tone_1,5702,7,Pretestexample_s_rv
pass,620ddeee49655b42f1242551,Group_JF,0,04cbb73480e16b0dd1318b3b32c0dbaefc83017771f404bf2042f67b6fa133cc,2001.7292289733887,False,keypress,pretestresponse_l_F,2146,['Longer'],choice-response,Shorter,620ec2cd3f3e26074333ad10,long_tone_8,2967,8,PretestTrials_l_rv
pass,620ddeee49655b42f1242551,Group_JF,0,04cbb73480e16b0dd1318b3b32c0dbaefc83017771f404bf2042f67b6fa133cc,2001.7292289733887,False,keypress,pretestresponse_s_J,1225,['Longer'],choice-response,Shorter,620ec2cd3f3e26074333ad10,short_tone_1,1909,9,PretestTrials_s_rv
pass,620ddeee49655b42f1242551,Group_JF,0,04cbb73480e16b0dd1318b3b32c0dbaefc83017771f404bf2042f67b6fa133cc,2001.7292289733887,False,keypress,pretestresponse_l_F,1672,['Longer'],choice-response,Shorter,620ec2cd3f3e26074333ad10,long_tone_8,2511,10,PretestTrials_l_rv
pass,620ddeee49655b42f1242551,Group_JF,0,04cbb73480e16b0dd1318b3b32c0dbaefc83017771f404bf2042f67b6fa133cc,2001.7292289733887,False,keypress,pretestresponse_s_J,680,['Longer'],choice-response,Shorter,620ec2cd3f3e26074333ad10,short_tone_1,1357,11,PretestTrials_s_rv
pass,620ddeee49655b42f1242551,Group_JF,0,04cbb73480e16b0dd1318b3b32c0dbaefc83017771f404bf2042f67b6fa133cc,2001.7292289733887,True,keypress,pretestresponse_l_F,549,['Longer'],choice-response,Longer,620ec2cd3f3e26074333ad10,long_tone_8,1598,12,PretestTrials_l_rv
pass,620ddeee49655b42f1242551,Group_JF,0,04cbb73480e16b0dd1318b3b32c0dbaefc83017771f404bf2042f67b6fa133cc,2001.7292289733887,False,keypress,pretestresponse_s_J,952,['Longer'],choice-response,Shorter,620ec2cd3f3e26074333ad10,short_tone_1,1895,13,PretestTrials_s_rv
pass,620ddeee49655b42f1242551,Group_JF,0,04cbb73480e16b0dd1318b3b32c0dbaefc83017771f404bf2042f67b6fa133cc,2001.7292289733887,True,keypress,pretestresponse_l_F,740,['Longer'],choice-response,Longer,620ec2cd3f3e26074333ad10,long_tone_8,1575,14,PretestTrials_l_rv
pass,620ddeee49655b42f1242551,Group_JF,0,04cbb73480e16b0dd1318b3b32c0dbaefc83017771f404bf2042f67b6fa133cc,2001.7292289733887,False,keypress,pretestresponse_s_J,575,['Longer'],choice-response,Shorter,620ec2cd3f3e26074333ad10,short_tone_1,1260,15,PretestTrials_s_rv
pass,620ddeee49655b42f1242551,Group_JF,0,04cbb73480e16b0dd1318b3b32c0dbaefc83017771f404bf2042f67b6fa133cc,2001.7292289733887,False,keypress,pretestresponse_s_J,468,['Longer'],choice-response,Shorter,620ec2cd3f3e26074333ad10,short_tone_1,1137,16,PretestTrials_s_rv
pass,620ddeee49655b42f1242551,Group_JF,0,04cbb73480e16b0dd1318b3b32c0dbaefc83017771f404bf2042f67b6fa133cc,2001.7292289733887,True,keypress,pretestresponse_l_F,478,['Longer'],choice-response,Longer,620ec2cd3f3e26074333ad10,long_tone_8,1310,17,PretestTrials_l_rv
pass,620ddeee49655b42f1242551,Group_JF,0,04cbb73480e16b0dd1318b3b32c0dbaefc83017771f404bf2042f67b6fa133cc,2001.7292289733887,False,keypress,pretestresponse_s_J,585,['Longer'],choice-response,Shorter,620ec2cd3f3e26074333ad10,short_tone_1,1285,18,PretestTrials_s_rv
pass,620ddeee49655b42f1242551,Group_JF,0,04cbb73480e16b0dd1318b3b32c0dbaefc83017771f404bf2042f67b6fa133cc,2001.7292289733887,True,keypress,pretestresponse_l_F,865,['Longer'],choice-response,Longer,620ec2cd3f3e26074333ad10,long_tone_8,1683,19,PretestTrials_l_rv
pass,620ddeee49655b42f1242551,Group_JF,0,04cbb73480e16b0dd1318b3b32c0dbaefc83017771f404bf2042f67b6fa133cc,2001.7292289733887,True,keypress,pretestresponse_l_F,777,['Longer'],choice-response,Longer,620ec2cd3f3e26074333ad10,long_tone_8,1600,20,PretestTrials_l_rv
pass,620ddeee49655b42f1242551,Group_JF,0,04cbb73480e16b0dd1318b3b32c0dbaefc83017771f404bf2042f67b6fa133cc,2001.7292289733887,False,keypress,pretestresponse_s_J,709,['Longer'],choice-response,Shorter,620ec2cd3f3e26074333ad10,short_tone_1,1402,21,PretestTrials_s_rv
pass,620ddeee49655b42f1242551,Group_JF,0,04cbb73480e16b0dd1318b3b32c0dbaefc83017771f404bf2042f67b6fa133cc,2001.7292289733887,True,keypress,pretestresponse_l_F,676,['Longer'],choice-response,Longer,620ec2cd3f3e26074333ad10,long_tone_8,1513,22,PretestTrials_l_rv
pass,620ddeee49655b42f1242551,Group_JF,0,04cbb73480e16b0dd1318b3b32c0dbaefc83017771f404bf2042f67b6fa133cc,2001.7292289733887,False,keypress,pretestresponse_s_J,797,['Longer'],choice-response,Shorter,620ec2cd3f3e26074333ad10,short_tone_1,1469,23,PretestTrials_s_rv
pass,620ddeee49655b42f1242551,Group_JF,0,04cbb73480e16b0dd1318b3b32c0dbaefc83017771f404bf2042f67b6fa133cc,2001.7292289733887,True,keypress,pretestresponse_l_F,655,['Longer'],choice-response,Longer,620ec2cd3f3e26074333ad10,long_tone_8,1477,24,PretestTrials_l_rv
pass,620ddeee49655b42f1242551,Group_JF,0,04cbb73480e16b0dd1318b3b32c0dbaefc83017771f404bf2042f67b6fa133cc,2001.7292289733887,False,keypress,pretestresponse_s_J,1657,['Longer'],choice-response,Shorter,620ec2cd3f3e26074333ad10,short_tone_1,2347,25,PretestTrials_s_rv
pass,620ddeee49655b42f1242551,Group_JF,0,04cbb73480e16b0dd1318b3b32c0dbaefc83017771f404bf2042f67b6fa133cc,2001.7292289733887,True,keypress,pretestresponse_l_F,775,['Longer'],choice-response,Longer,620ec2cd3f3e26074333ad10,long_tone_8,1588,26,PretestTrials_l_rv
pass,620ddeee49655b42f1242551,Group_JF,0,04cbb73480e16b0dd1318b3b32c0dbaefc83017771f404bf2042f67b6fa133cc,2001.7292289733887,False,keypress,pretestresponse_s_J,582,['Longer'],choice-response,Shorter,620ec2cd3f3e26074333ad10,short_tone_1,1257,27,PretestTrials_s_rv
pass,620ddeee49655b42f1242551,Group_JF,0,04cbb73480e16b0dd1318b3b32c0dbaefc83017771f404bf2042f67b6fa133cc,2001.7292289733887,False,keypress,pretestresponse_s_J,578,['Longer'],choice-response,Shorter,620ec2cd3f3e26074333ad10,short_tone_1,1257,28,PretestTrials_s_rv
pass,620ddeee49655b42f1242551,Group_JF,0,04cbb73480e16b0dd1318b3b32c0dbaefc83017771f404bf2042f67b6fa133cc,2001.7292289733887,True,keypress,pretestresponse_l_F,421,['Longer'],choice-response,Longer,620ec2cd3f3e26074333ad10,long_tone_8,1218,29,PretestTrials_l_rv
pass,620ddeee49655b42f1242551,Group_JF,0,04cbb73480e16b0dd1318b3b32c0dbaefc83017771f404bf2042f67b6fa133cc,2001.7292289733887,False,keypress,pretestresponse_s_J,542,['Longer'],choice-response,Shorter,620ec2cd3f3e26074333ad10,short_tone_1,1240,30,PretestTrials_s_rv
pass,620ddeee49655b42f1242551,Group_JF,0,04cbb73480e16b0dd1318b3b32c0dbaefc83017771f404bf2042f67b6fa133cc,2001.7292289733887,False,keypress,pretestresponse_l_F,719,['Longer'],choice-response,Shorter,620ec2cd3f3e26074333ad10,long_tone_8,1543,31,PretestTrials_l_rv
pass,620ddeee49655b42f1242551,Group_JF,0,04cbb73480e16b0dd1318b3b32c0dbaefc83017771f404bf2042f67b6fa133cc,2001.7292289733887,True,keypress,pretestresponse_l_F,657,['Longer'],choice-response,Longer,620ec2cd3f3e26074333ad10,long_tone_8,1468,32,PretestTrials_l_rv
pass,620ddeee49655b42f1242551,Group_JF,0,04cbb73480e16b0dd1318b3b32c0dbaefc83017771f404bf2042f67b6fa133cc,2001.7292289733887,True,keypress,pretestresponse_s_J,667,['Longer'],choice-response,Longer,620ec2cd3f3e26074333ad10,short_tone_1,1507,33,PretestTrials_s_rv
pass,620ddeee49655b42f1242551,Group_JF,0,04cbb73480e16b0dd1318b3b32c0dbaefc83017771f404bf2042f67b6fa133cc,2001.7292289733887,True,keypress,pretestresponse_l_F,487,['Longer'],choice-response,Longer,620ec2cd3f3e26074333ad10,long_tone_8,1308,34,PretestTrials_l_rv
pass,620ddeee49655b42f1242551,Group_JF,0,04cbb73480e16b0dd1318b3b32c0dbaefc83017771f404bf2042f67b6fa133cc,2001.7292289733887,True,keypress,pretestresponse_s_J,913,['Longer'],choice-response,Longer,620ec2cd3f3e26074333ad10,short_tone_1,1615,35,PretestTrials_s_rv
pass,620ddeee49655b42f1242551,Group_JF,0,04cbb73480e16b0dd1318b3b32c0dbaefc83017771f404bf2042f67b6fa133cc,2001.7292289733887,True,keypress,pretestresponse_l_F,452,['Longer'],choice-response,Longer,620ec2cd3f3e26074333ad10,long_tone_8,1306,36,PretestTrials_l_rv
pass,620ddeee49655b42f1242551,Group_JF,0,04cbb73480e16b0dd1318b3b32c0dbaefc83017771f404bf2042f67b6fa133cc,2001.7292289733887,False,keypress,pretestresponse_s_J,537,['Longer'],choice-response,Shorter,620ec2cd3f3e26074333ad10,short_tone_1,1225,37,PretestTrials_s_rv
pass,620ddeee49655b42f1242551,Group_JF,0,04cbb73480e16b0dd1318b3b32c0dbaefc83017771f404bf2042f67b6fa133cc,2001.7292289733887,False,keypress,pretestresponse_s_J,430,['Longer'],choice-response,Shorter,620ec2cd3f3e26074333ad10,short_tone_1,1113,38,PretestTrials_s_rv
pass,620ddeee49655b42f1242551,Group_JF,0,04cbb73480e16b0dd1318b3b32c0dbaefc83017771f404bf2042f67b6fa133cc,2001.7292289733887,True,keypress,pretestresponse_l_F,364,['Longer'],choice-response,Longer,620ec2cd3f3e26074333ad10,long_tone_8,1193,39,PretestTrials_l_rv
pass,620ddeee49655b42f1242551,Group_JF,0,04cbb73480e16b0dd1318b3b32c0dbaefc83017771f404bf2042f67b6fa133cc,2001.7292289733887,True,keypress,pretestresponse_l_F,731,['Longer'],choice-response,Longer,620ec2cd3f3e26074333ad10,long_tone_8,1565,40,PretestTrials_l_rv
pass,620ddeee49655b42f1242551,Group_JF,0,04cbb73480e16b0dd1318b3b32c0dbaefc83017771f404bf2042f67b6fa133cc,2001.7292289733887,False,keypress,pretestresponse_s_J,729,['Longer'],choice-response,Shorter,620ec2cd3f3e26074333ad10,short_tone_1,1408,41,PretestTrials_s_rv
pass,620ddeee49655b42f1242551,Group_JF,0,04cbb73480e16b0dd1318b3b32c0dbaefc83017771f404bf2042f67b6fa133cc,2001.7292289733887,True,keypress,pretestresponse_s_J,529,['Longer'],choice-response,Longer,620ec2cd3f3e26074333ad10,short_tone_1,1233,42,PretestTrials_s_rv
pass,620ddeee49655b42f1242551,Group_JF,0,04cbb73480e16b0dd1318b3b32c0dbaefc83017771f404bf2042f67b6fa133cc,2001.7292289733887,True,keypress,pretestresponse_l_F,1313,['Longer'],choice-response,Longer,620ec2cd3f3e26074333ad10,long_tone_8,2136,43,PretestTrials_l_rv
pass,620ddeee49655b42f1242551,Group_JF,0,04cbb73480e16b0dd1318b3b32c0dbaefc83017771f404bf2042f67b6fa133cc,2001.7292289733887,True,keypress,pretestresponse_l_F,368,['Longer'],choice-response,Longer,620ec2cd3f3e26074333ad10,long_tone_8,1184,44,PretestTrials_l_rv
pass,620ddeee49655b42f1242551,Group_JF,0,04cbb73480e16b0dd1318b3b32c0dbaefc83017771f404bf2042f67b6fa133cc,2001.7292289733887,False,keypress,pretestresponse_s_J,491,['Longer'],choice-response,Shorter,620ec2cd3f3e26074333ad10,short_tone_1,1170,45,PretestTrials_s_rv
pass,620ddeee49655b42f1242551,Group_JF,0,04cbb73480e16b0dd1318b3b32c0dbaefc83017771f404bf2042f67b6fa133cc,2001.7292289733887,True,keypress,pretestresponse_l_F,881,['Longer'],choice-response,Longer,620ec2cd3f3e26074333ad10,long_tone_8,1700,46,PretestTrials_l_rv
pass,620ddeee49655b42f1242551,Group_JF,0,04cbb73480e16b0dd1318b3b32c0dbaefc83017771f404bf2042f67b6fa133cc,2001.7292289733887,False,keypress,pretestresponse_s_J,691,['Longer'],choice-response,Shorter,620ec2cd3f3e26074333ad10,short_tone_1,1377,47,PretestTrials_s_rv
pass,620ddeee49655b42f1242551,Group_JF,0,04cbb73480e16b0dd1318b3b32c0dbaefc83017771f404bf2042f67b6fa133cc,2001.7292289733887,False,keypress,pretestresponse_s_J,667,['Longer'],choice-response,Shorter,620ec2cd3f3e26074333ad10,short_tone_1,1344,48,PretestTrials_s_rv
pass,620ddeee49655b42f1242551,Group_JF,0,04cbb73480e16b0dd1318b3b32c0dbaefc83017771f404bf2042f67b6fa133cc,2001.7292289733887,True,keypress,pretestresponse_l_F,1006,['Longer'],choice-response,Longer,620ec2cd3f3e26074333ad10,long_tone_8,1841,49,PretestTrials_l_rv
pass,620ddeee49655b42f1242551,Group_JF,0,04cbb73480e16b0dd1318b3b32c0dbaefc83017771f404bf2042f67b6fa133cc,2001.7292289733887,False,keypress,pretestresponse_s_J,690,['Longer'],choice-response,Shorter,620ec2cd3f3e26074333ad10,short_tone_1,1364,50,PretestTrials_s_rv
pass,620ddeee49655b42f1242551,Group_JF,0,04cbb73480e16b0dd1318b3b32c0dbaefc83017771f404bf2042f67b6fa133cc,2001.7292289733887,True,keypress,pretestresponse_l_F,454,['Longer'],choice-response,Longer,620ec2cd3f3e26074333ad10,long_tone_8,1269,51,PretestTrials_l_rv
pass,620ddeee49655b42f1242551,Group_JF,0,04cbb73480e16b0dd1318b3b32c0dbaefc83017771f404bf2042f67b6fa133cc,2001.7292289733887,True,keypress,pretestresponse_l_F,468,['Longer'],choice-response,Longer,620ec2cd3f3e26074333ad10,long_tone_8,1301,52,PretestTrials_l_rv
pass,620ddeee49655b42f1242551,Group_JF,0,04cbb73480e16b0dd1318b3b32c0dbaefc83017771f404bf2042f67b6fa133cc,2001.7292289733887,False,keypress,pretestresponse_s_J,649,['Longer'],choice-response,Shorter,620ec2cd3f3e26074333ad10,short_tone_1,1320,53,PretestTrials_s_rv
pass,620ddeee49655b42f1242551,Group_JF,0,04cbb73480e16b0dd1318b3b32c0dbaefc83017771f404bf2042f67b6fa133cc,2001.7292289733887,True,keypress,pretestresponse_l_F,419,['Longer'],choice-response,Longer,620ec2cd3f3e26074333ad10,long_tone_8,1492,54,PretestTrials_l_rv
pass,620ddeee49655b42f1242551,Group_JF,0,04cbb73480e16b0dd1318b3b32c0dbaefc83017771f404bf2042f67b6fa133cc,2001.7292289733887,False,keypress,pretestresponse_s_J,487,['Longer'],choice-response,Shorter,620ec2cd3f3e26074333ad10,short_tone_1,1173,55,PretestTrials_s_rv
pass,620ddeee49655b42f1242551,Group_JF,0,04cbb73480e16b0dd1318b3b32c0dbaefc83017771f404bf2042f67b6fa133cc,2001.7292289733887,False,keypress,pretestresponse_s_J,561,['Longer'],choice-response,Shorter,620ec2cd3f3e26074333ad10,short_tone_1,1229,56,PretestTrials_s_rv
pass,620ddeee49655b42f1242551,Group_JF,0,04cbb73480e16b0dd1318b3b32c0dbaefc83017771f404bf2042f67b6fa133cc,2001.7292289733887,True,keypress,pretestresponse_l_F,375,['Longer'],choice-response,Longer,620ec2cd3f3e26074333ad10,long_tone_8,1187,57,PretestTrials_l_rv
pass,620ddeee49655b42f1242551,Group_JF,0,04cbb73480e16b0dd1318b3b32c0dbaefc83017771f404bf2042f67b6fa133cc,2001.7292289733887,False,keypress,pretestresponse_s_J,563,['Longer'],choice-response,Shorter,620ec2cd3f3e26074333ad10,short_tone_1,1250,58,PretestTrials_s_rv
pass,620ddeee49655b42f1242551,Group_JF,0,04cbb73480e16b0dd1318b3b32c0dbaefc83017771f404bf2042f67b6fa133cc,2001.7292289733887,True,keypress,pretestresponse_l_F,439,['Longer'],choice-response,Longer,620ec2cd3f3e26074333ad10,long_tone_8,1265,59,PretestTrials_l_rv
pass,620ddeee49655b42f1242551,Group_JF,0,04cbb73480e16b0dd1318b3b32c0dbaefc83017771f404bf2042f67b6fa133cc,2001.7292289733887,True,keypress,pretestresponse_l_F,180,['Longer'],choice-response,Longer,620ec2cd3f3e26074333ad10,long_tone_8,1014,60,PretestTrials_l_rv
pass,620ddeee49655b42f1242551,Group_JF,0,04cbb73480e16b0dd1318b3b32c0dbaefc83017771f404bf2042f67b6fa133cc,2001.7292289733887,False,keypress,pretestresponse_s_J,419,['Longer'],choice-response,Shorter,620ec2cd3f3e26074333ad10,short_tone_1,1082,61,PretestTrials_s_rv
pass,620ddeee49655b42f1242551,Group_JF,0,04cbb73480e16b0dd1318b3b32c0dbaefc83017771f404bf2042f67b6fa133cc,2001.7292289733887,True,keypress,pretestresponse_l_F,891,['Longer'],choice-response,Longer,620ec2cd3f3e26074333ad10,long_tone_8,1750,62,PretestTrials_l_rv
pass,620ddeee49655b42f1242551,Group_JF,0,04cbb73480e16b0dd1318b3b32c0dbaefc83017771f404bf2042f67b6fa133cc,2001.7292289733887,False,keypress,pretestresponse_s_J,1148,['Longer'],choice-response,Shorter,620ec2cd3f3e26074333ad10,short_tone_1,1897,63,PretestTrials_s_rv
pass,620ddeee49655b42f1242551,Group_JF,0,04cbb73480e16b0dd1318b3b32c0dbaefc83017771f404bf2042f67b6fa133cc,2001.7292289733887,False,keypress,pretestresponse_s_J,452,['Longer'],choice-response,Shorter,620ec2cd3f3e26074333ad10,short_tone_1,1161,64,PretestTrials_s_rv
pass,620ddeee49655b42f1242551,Group_JF,0,04cbb73480e16b0dd1318b3b32c0dbaefc83017771f404bf2042f67b6fa133cc,2001.7292289733887,True,keypress,pretestresponse_l_F,395,['Longer'],choice-response,Longer,620ec2cd3f3e26074333ad10,long_tone_8,1220,65,PretestTrials_l_rv
pass,620ddeee49655b42f1242551,Group_JF,0,04cbb73480e16b0dd1318b3b32c0dbaefc83017771f404bf2042f67b6fa133cc,2001.7292289733887,False,keypress,pretestresponse_s_J,555,['Longer'],choice-response,Shorter,620ec2cd3f3e26074333ad10,short_tone_1,1228,66,PretestTrials_s_rv
pass,620ddeee49655b42f1242551,Group_JF,0,04cbb73480e16b0dd1318b3b32c0dbaefc83017771f404bf2042f67b6fa133cc,2001.7292289733887,True,keypress,pretestresponse_l_F,553,['Longer'],choice-response,Longer,620ec2cd3f3e26074333ad10,long_tone_8,1378,67,PretestTrials_l_rv
pass,620ddeee49655b42f1242551,Group_JF,0,04cbb73480e16b0dd1318b3b32c0dbaefc83017771f404bf2042f67b6fa133cc,2001.7292289733887,True,keypress,exampleresponse_l_F,3942,['Longer'],choice-response,Longer,620ec2cd3f3e26074333ad10,single_300ms_ontime_delay_2_tone_Lab_8,9878,68,example_l_rv
pass,620ddeee49655b42f1242551,Group_JF,0,04cbb73480e16b0dd1318b3b32c0dbaefc83017771f404bf2042f67b6fa133cc,2001.7292289733887,True,keypress,exampleresponse_s_J,887,['Shorter'],choice-response,Shorter,620ec2cd3f3e26074333ad10,single_300ms_ontime_delay_2_tone_Lab_1,6683,69,example_s_rv
pass,620ddeee49655b42f1242551,Group_JF,0,04cbb73480e16b0dd1318b3b32c0dbaefc83017771f404bf2042f67b6fa133cc,2001.7292289733887,False,keypress,exampleresponse_s_J,660,['Shorter'],choice-response,Longer,620ec2cd3f3e26074333ad10,single_300ms_ontime_delay_2_tone_Lab_1,6058,70,example_s_rv
pass,620ddeee49655b42f1242551,Group_JF,0,04cbb73480e16b0dd1318b3b32c0dbaefc83017771f404bf2042f67b6fa133cc,2001.7292289733887,True,keypress,exampleresponse_l_F,614,['Longer'],choice-response,Longer,620ec2cd3f3e26074333ad10,single_300ms_ontime_delay_2_tone_Lab_8,6549,71,example_l_rv
pass,620ddeee49655b42f1242551,Group_JF,0,04cbb73480e16b0dd1318b3b32c0dbaefc83017771f404bf2042f67b6fa133cc,2001.7292289733887,False,keypress,practiceresponse_s_J,1986,['Shorter'],choice-response,Longer,620ec2cd3f3e26074333ad10,single_300ms_ontime_delay_2_tone_Lab_1,7710,72,practiceTrials_s_rv
pass,620ddeee49655b42f1242551,Group_JF,0,04cbb73480e16b0dd1318b3b32c0dbaefc83017771f404bf2042f67b6fa133cc,2001.7292289733887,True,keypress,practiceresponse_l_F,459,['Longer'],choice-response,Longer,620ec2cd3f3e26074333ad10,single_300ms_ontime_delay_2_tone_Lab_8,6369,73,practiceTrials_l_rv
pass,620ddeee49655b42f1242551,Group_JF,0,04cbb73480e16b0dd1318b3b32c0dbaefc83017771f404bf2042f67b6fa133cc,2001.7292289733887,True,keypress,practiceresponse_s_J,628,['Shorter'],choice-response,Shorter,620ec2cd3f3e26074333ad10,single_300ms_ontime_delay_2_tone_Lab_1,6420,74,practiceTrials_s_rv
pass,620ddeee49655b42f1242551,Group_JF,0,04cbb73480e16b0dd1318b3b32c0dbaefc83017771f404bf2042f67b6fa133cc,2001.7292289733887,False,keypress,practiceresponse_l_F,551,['Longer'],choice-response,Shorter,620ec2cd3f3e26074333ad10,single_300ms_ontime_delay_2_tone_Lab_8,6435,75,practiceTrials_l_rv
pass,620ddeee49655b42f1242551,Group_JF,0,04cbb73480e16b0dd1318b3b32c0dbaefc83017771f404bf2042f67b6fa133cc,2001.7292289733887,False,keypress,practiceresponse_s_J,1478,['Shorter'],choice-response,Longer,620ec2cd3f3e26074333ad10,single_300ms_ontime_delay_2_tone_Lab_1,7158,76,practiceTrials_s_rv
pass,620ddeee49655b42f1242551,Group_JF,0,04cbb73480e16b0dd1318b3b32c0dbaefc83017771f404bf2042f67b6fa133cc,2001.7292289733887,False,keypress,practiceresponse_l_F,645,['Longer'],choice-response,Shorter,620ec2cd3f3e26074333ad10,single_300ms_ontime_delay_2_tone_Lab_8,6554,77,practiceTrials_l_rv
pass,620ddeee49655b42f1242551,Group_JF,0,04cbb73480e16b0dd1318b3b32c0dbaefc83017771f404bf2042f67b6fa133cc,2001.7292289733887,True,keypress,practiceresponse_l_F,786,['Longer'],choice-response,Longer,620ec2cd3f3e26074333ad10,single_300ms_ontime_delay_2_tone_Lab_8,6336,78,practiceTrials_l_rv
pass,620ddeee49655b42f1242551,Group_JF,0,04cbb73480e16b0dd1318b3b32c0dbaefc83017771f404bf2042f67b6fa133cc,2001.7292289733887,False,keypress,practiceresponse_s_J,815,['Shorter'],choice-response,Longer,620ec2cd3f3e26074333ad10,single_300ms_ontime_delay_2_tone_Lab_1,6617,79,practiceTrials_s_rv
pass,620ddeee49655b42f1242551,Group_JF,0,04cbb73480e16b0dd1318b3b32c0dbaefc83017771f404bf2042f67b6fa133cc,2001.7292289733887,True,keypress,practiceresponse_s_J,722,['Shorter'],choice-response,Shorter,620ec2cd3f3e26074333ad10,single_300ms_ontime_delay_2_tone_Lab_1,6126,80,practiceTrials_s_rv
pass,620ddeee49655b42f1242551,Group_JF,0,04cbb73480e16b0dd1318b3b32c0dbaefc83017771f404bf2042f67b6fa133cc,2001.7292289733887,True,keypress,practiceresponse_l_F,416,['Longer'],choice-response,Longer,620ec2cd3f3e26074333ad10,single_300ms_ontime_delay_2_tone_Lab_8,6269,81,practiceTrials_l_rv
pass,620ddeee49655b42f1242551,Group_JF,0,04cbb73480e16b0dd1318b3b32c0dbaefc83017771f404bf2042f67b6fa133cc,2001.7292289733887,True,keypress,practiceresponse_s_J,433,['Shorter'],choice-response,Shorter,620ec2cd3f3e26074333ad10,single_300ms_ontime_delay_2_tone_Lab_1,6020,82,practiceTrials_s_rv
pass,620ddeee49655b42f1242551,Group_JF,0,04cbb73480e16b0dd1318b3b32c0dbaefc83017771f404bf2042f67b6fa133cc,2001.7292289733887,True,keypress,practiceresponse_l_F,616,['Longer'],choice-response,Longer,620ec2cd3f3e26074333ad10,single_300ms_ontime_delay_2_tone_Lab_8,6562,83,practiceTrials_l_rv
pass,620ddeee49655b42f1242551,Group_JF,0,04cbb73480e16b0dd1318b3b32c0dbaefc83017771f404bf2042f67b6fa133cc,2001.7292289733887,False,keypress,practiceresponse_l_F,560,['Longer'],choice-response,Shorter,620ec2cd3f3e26074333ad10,single_300ms_ontime_delay_2_tone_Lab_8,6104,84,practiceTrials_l_rv
pass,620ddeee49655b42f1242551,Group_JF,0,04cbb73480e16b0dd1318b3b32c0dbaefc83017771f404bf2042f67b6fa133cc,2001.7292289733887,True,keypress,practiceresponse_s_J,728,['Shorter'],choice-response,Shorter,620ec2cd3f3e26074333ad10,single_300ms_ontime_delay_2_tone_Lab_1,6497,85,practiceTrials_s_rv
pass,620ddeee49655b42f1242551,Group_JF,0,04cbb73480e16b0dd1318b3b32c0dbaefc83017771f404bf2042f67b6fa133cc,2001.7292289733887,True,keypress,practiceresponse_s_J,522,['Shorter'],choice-response,Shorter,620ec2cd3f3e26074333ad10,single_300ms_ontime_delay_2_tone_Lab_1,5951,86,practiceTrials_s_rv
pass,620ddeee49655b42f1242551,Group_JF,0,04cbb73480e16b0dd1318b3b32c0dbaefc83017771f404bf2042f67b6fa133cc,2001.7292289733887,True,keypress,practiceresponse_l_F,490,['Longer'],choice-response,Longer,620ec2cd3f3e26074333ad10,single_300ms_ontime_delay_2_tone_Lab_8,6219,87,practiceTrials_l_rv
pass,620ddeee49655b42f1242551,Group_JF,0,04cbb73480e16b0dd1318b3b32c0dbaefc83017771f404bf2042f67b6fa133cc,2001.7292289733887,True,keypress,practiceresponse_s_J,670,['Shorter'],choice-response,Shorter,620ec2cd3f3e26074333ad10,single_300ms_ontime_delay_2_tone_Lab_1,6448,88,practiceTrials_s_rv
pass,620ddeee49655b42f1242551,Group_JF,0,04cbb73480e16b0dd1318b3b32c0dbaefc83017771f404bf2042f67b6fa133cc,2001.7292289733887,False,keypress,practiceresponse_l_F,655,['Longer'],choice-response,Shorter,620ec2cd3f3e26074333ad10,single_300ms_ontime_delay_2_tone_Lab_8,6335,89,practiceTrials_l_rv
pass,620ddeee49655b42f1242551,Group_JF,0,04cbb73480e16b0dd1318b3b32c0dbaefc83017771f404bf2042f67b6fa133cc,2001.7292289733887,True,keypress,practiceresponse_l_F,424,['Longer'],choice-response,Longer,620ec2cd3f3e26074333ad10,single_300ms_ontime_delay_2_tone_Lab_8,5976,90,practiceTrials_l_rv
pass,620ddeee49655b42f1242551,Group_JF,0,04cbb73480e16b0dd1318b3b32c0dbaefc83017771f404bf2042f67b6fa133cc,2001.7292289733887,True,keypress,practiceresponse_s_J,662,['Shorter'],choice-response,Shorter,620ec2cd3f3e26074333ad10,single_300ms_ontime_delay_2_tone_Lab_1,6242,91,practiceTrials_s_rv
pass,620ddeee49655b42f1242551,Group_JF,0,04cbb73480e16b0dd1318b3b32c0dbaefc83017771f404bf2042f67b6fa133cc,2001.7292289733887,True,keypress,practiceresponse_s_J,547,['Shorter'],choice-response,Shorter,620ec2cd3f3e26074333ad10,single_300ms_ontime_delay_2_tone_Lab_1,5940,92,practiceTrials_s_rv
pass,620ddeee49655b42f1242551,Group_JF,0,04cbb73480e16b0dd1318b3b32c0dbaefc83017771f404bf2042f67b6fa133cc,2001.7292289733887,False,keypress,practiceresponse_l_F,911,['Longer'],choice-response,Shorter,620ec2cd3f3e26074333ad10,single_300ms_ontime_delay_2_tone_Lab_8,6636,93,practiceTrials_l_rv
pass,620ddeee49655b42f1242551,Group_JF,0,04cbb73480e16b0dd1318b3b32c0dbaefc83017771f404bf2042f67b6fa133cc,2001.7292289733887,True,keypress,practiceresponse_s_J,517,['Shorter'],choice-response,Shorter,620ec2cd3f3e26074333ad10,single_300ms_ontime_delay_2_tone_Lab_1,6193,94,practiceTrials_s_rv
pass,620ddeee49655b42f1242551,Group_JF,0,04cbb73480e16b0dd1318b3b32c0dbaefc83017771f404bf2042f67b6fa133cc,2001.7292289733887,True,keypress,practiceresponse_l_F,1477,['Longer'],choice-response,Longer,620ec2cd3f3e26074333ad10,single_300ms_ontime_delay_2_tone_Lab_8,7362,95,practiceTrials_l_rv
pass,620ddeee49655b42f1242551,Group_JF,0,04cbb73480e16b0dd1318b3b32c0dbaefc83017771f404bf2042f67b6fa133cc,2001.7292289733887,True,keypress,testresponse_s_J,722,['Shorter'],choice-response,Shorter,620ec2cd3f3e26074333ad10,single_300ms_late_delay_2_tone_Lab_2,3885,96,maintaskTrials_2_s_rv
pass,620ddeee49655b42f1242551,Group_JF,0,04cbb73480e16b0dd1318b3b32c0dbaefc83017771f404bf2042f67b6fa133cc,2001.7292289733887,True,keypress,testresponse_s_J,576,['Shorter'],choice-response,Shorter,620ec2cd3f3e26074333ad10,single_300ms_early_delay_2_tone_Lab_1,3461,97,maintaskTrials_2_s_rv
pass,620ddeee49655b42f1242551,Group_JF,0,04cbb73480e16b0dd1318b3b32c0dbaefc83017771f404bf2042f67b6fa133cc,2001.7292289733887,True,keypress,testresponse_s_J,536,['Shorter'],choice-response,Shorter,620ec2cd3f3e26074333ad10,single_300ms_ontime_delay_2_tone_Lab_2,3490,98,maintaskTrials_2_s_rv
pass,620ddeee49655b42f1242551,Group_JF,0,04cbb73480e16b0dd1318b3b32c0dbaefc83017771f404bf2042f67b6fa133cc,2001.7292289733887,False,keypress,testresponse_l_F,1267,['Longer'],choice-response,Shorter,620ec2cd3f3e26074333ad10,single_300ms_early_delay_2_tone_Lab_8,4286,99,maintaskTrials_2_l_rv
pass,620ddeee49655b42f1242551,Group_JF,0,04cbb73480e16b0dd1318b3b32c0dbaefc83017771f404bf2042f67b6fa133cc,2001.7292289733887,True,keypress,testresponse_l_F,497,['Longer'],choice-response,Longer,620ec2cd3f3e26074333ad10,single_300ms_late_delay_2_tone_Lab_5,3689,100,maintaskTrials_2_l_rv
pass,620ddeee49655b42f1242551,Group_JF,0,04cbb73480e16b0dd1318b3b32c0dbaefc83017771f404bf2042f67b6fa133cc,2001.7292289733887,True,keypress,testresponse_s_J,1358,['Shorter'],choice-response,Shorter,620ec2cd3f3e26074333ad10,single_300ms_late_delay_2_tone_Lab_3,4431,101,maintaskTrials_2_s_rv
pass,620ddeee49655b42f1242551,Group_JF,0,04cbb73480e16b0dd1318b3b32c0dbaefc83017771f404bf2042f67b6fa133cc,2001.7292289733887,True,keypress,testresponse_l_F,764,['Longer'],choice-response,Longer,620ec2cd3f3e26074333ad10,single_300ms_early_delay_2_tone_Lab_7,3743,102,maintaskTrials_2_l_rv
pass,620ddeee49655b42f1242551,Group_JF,0,04cbb73480e16b0dd1318b3b32c0dbaefc83017771f404bf2042f67b6fa133cc,2001.7292289733887,True,keypress,testresponse_l_F,424,['Longer'],choice-response,Longer,620ec2cd3f3e26074333ad10,single_300ms_ontime_delay_2_tone_Lab_7,3508,103,maintaskTrials_2_l_rv
pass,620ddeee49655b42f1242551,Group_JF,0,04cbb73480e16b0dd1318b3b32c0dbaefc83017771f404bf2042f67b6fa133cc,2001.7292289733887,True,keypress,testresponse_s_J,798,['Shorter'],choice-response,Shorter,620ec2cd3f3e26074333ad10,single_300ms_late_delay_2_tone_Lab_4,4018,104,maintaskTrials_2_s_rv
pass,620ddeee49655b42f1242551,Group_JF,0,04cbb73480e16b0dd1318b3b32c0dbaefc83017771f404bf2042f67b6fa133cc,2001.7292289733887,True,keypress,testresponse_s_J,229,['Shorter'],choice-response,Shorter,620ec2cd3f3e26074333ad10,single_300ms_early_delay_2_tone_Lab_4,3144,105,maintaskTrials_2_s_rv
pass,620ddeee49655b42f1242551,Group_JF,0,04cbb73480e16b0dd1318b3b32c0dbaefc83017771f404bf2042f67b6fa133cc,2001.7292289733887,True,keypress,testresponse_l_F,1023,['Longer'],choice-response,Longer,620ec2cd3f3e26074333ad10,single_300ms_late_delay_2_tone_Lab_7,4174,106,maintaskTrials_2_l_rv
pass,620ddeee49655b42f1242551,Group_JF,0,04cbb73480e16b0dd1318b3b32c0dbaefc83017771f404bf2042f67b6fa133cc,2001.7292289733887,True,keypress,cat_catchRsp,2246,['Cat meowing'],choice-response,Cat meowing,620ec2cd3f3e26074333ad10,cat_meowing,4837,107,Catch_cat
pass,620ddeee49655b42f1242551,Group_JF,0,04cbb73480e16b0dd1318b3b32c0dbaefc83017771f404bf2042f67b6fa133cc,2001.7292289733887,True,keypress,testresponse_s_J,630,['Shorter'],choice-response,Shorter,620ec2cd3f3e26074333ad10,single_300ms_early_delay_2_tone_Lab_3,3547,108,maintaskTrials_2_s_rv
pass,620ddeee49655b42f1242551,Group_JF,0,04cbb73480e16b0dd1318b3b32c0dbaefc83017771f404bf2042f67b6fa133cc,2001.7292289733887,False,keypress,testresponse_l_F,570,['Longer'],choice-response,Shorter,620ec2cd3f3e26074333ad10,single_300ms_early_delay_2_tone_Lab_5,3511,109,maintaskTrials_2_l_rv
pass,620ddeee49655b42f1242551,Group_JF,0,04cbb73480e16b0dd1318b3b32c0dbaefc83017771f404bf2042f67b6fa133cc,2001.7292289733887,True,keypress,testresponse_s_J,284,['Shorter'],choice-response,Shorter,620ec2cd3f3e26074333ad10,single_300ms_ontime_delay_2_tone_Lab_1,3235,110,maintaskTrials_2_s_rv
pass,620ddeee49655b42f1242551,Group_JF,0,04cbb73480e16b0dd1318b3b32c0dbaefc83017771f404bf2042f67b6fa133cc,2001.7292289733887,True,keypress,testresponse_s_J,860,['Shorter'],choice-response,Shorter,620ec2cd3f3e26074333ad10,single_300ms_ontime_delay_2_tone_Lab_4,3865,111,maintaskTrials_2_s_rv
pass,620ddeee49655b42f1242551,Group_JF,0,04cbb73480e16b0dd1318b3b32c0dbaefc83017771f404bf2042f67b6fa133cc,2001.7292289733887,True,keypress,testresponse_s_J,734,['Shorter'],choice-response,Shorter,620ec2cd3f3e26074333ad10,single_300ms_late_delay_2_tone_Lab_1,3761,112,maintaskTrials_2_s_rv
pass,620ddeee49655b42f1242551,Group_JF,0,04cbb73480e16b0dd1318b3b32c0dbaefc83017771f404bf2042f67b6fa133cc,2001.7292289733887,True,keypress,testresponse_l_F,944,['Longer'],choice-response,Longer,620ec2cd3f3e26074333ad10,single_300ms_ontime_delay_2_tone_Lab_5,3995,113,maintaskTrials_2_l_rv
pass,620ddeee49655b42f1242551,Group_JF,0,04cbb73480e16b0dd1318b3b32c0dbaefc83017771f404bf2042f67b6fa133cc,2001.7292289733887,False,keypress,testresponse_l_F,399,['Longer'],choice-response,Shorter,620ec2cd3f3e26074333ad10,single_300ms_ontime_delay_2_tone_Lab_8,3498,114,maintaskTrials_2_l_rv
pass,620ddeee49655b42f1242551,Group_JF,0,04cbb73480e16b0dd1318b3b32c0dbaefc83017771f404bf2042f67b6fa133cc,2001.7292289733887,True,keypress,testresponse_s_J,611,['Shorter'],choice-response,Shorter,620ec2cd3f3e26074333ad10,single_300ms_ontime_delay_2_tone_Lab_3,3736,115,maintaskTrials_2_s_rv
pass,620ddeee49655b42f1242551,Group_JF,0,04cbb73480e16b0dd1318b3b32c0dbaefc83017771f404bf2042f67b6fa133cc,2001.7292289733887,True,keypress,testresponse_l_F,473,['Longer'],choice-response,Longer,620ec2cd3f3e26074333ad10,single_300ms_early_delay_2_tone_Lab_6,3500,116,maintaskTrials_2_l_rv
pass,620ddeee49655b42f1242551,Group_JF,0,04cbb73480e16b0dd1318b3b32c0dbaefc83017771f404bf2042f67b6fa133cc,2001.7292289733887,False,keypress,testresponse_l_F,540,['Longer'],choice-response,Shorter,620ec2cd3f3e26074333ad10,single_300ms_ontime_delay_2_tone_Lab_6,3580,117,maintaskTrials_2_l_rv
pass,620ddeee49655b42f1242551,Group_JF,0,04cbb73480e16b0dd1318b3b32c0dbaefc83017771f404bf2042f67b6fa133cc,2001.7292289733887,True,keypress,testresponse_s_J,778,['Shorter'],choice-response,Shorter,620ec2cd3f3e26074333ad10,single_300ms_early_delay_2_tone_Lab_2,3636,118,maintaskTrials_2_s_rv
pass,620ddeee49655b42f1242551,Group_JF,0,04cbb73480e16b0dd1318b3b32c0dbaefc83017771f404bf2042f67b6fa133cc,2001.7292289733887,True,keypress,cat_catchRsp,923,['Cat meowing'],choice-response,Cat meowing,620ec2cd3f3e26074333ad10,cat_meowing,3503,119,Catch_cat
pass,620ddeee49655b42f1242551,Group_JF,0,04cbb73480e16b0dd1318b3b32c0dbaefc83017771f404bf2042f67b6fa133cc,2001.7292289733887,True,keypress,testresponse_l_F,770,['Longer'],choice-response,Longer,620ec2cd3f3e26074333ad10,single_300ms_late_delay_2_tone_Lab_6,3921,120,maintaskTrials_2_l_rv
pass,620ddeee49655b42f1242551,Group_JF,0,04cbb73480e16b0dd1318b3b32c0dbaefc83017771f404bf2042f67b6fa133cc,2001.7292289733887,True,keypress,testresponse_l_F,942,['Longer'],choice-response,Longer,620ec2cd3f3e26074333ad10,single_300ms_late_delay_2_tone_Lab_8,4117,121,maintaskTrials_2_l_rv
pass,620ddeee49655b42f1242551,Group_JF,0,04cbb73480e16b0dd1318b3b32c0dbaefc83017771f404bf2042f67b6fa133cc,2001.7292289733887,True,keypress,testresponse_s_J,1336,['Shorter'],choice-response,Shorter,620ec2cd3f3e26074333ad10,single_300ms_ontime_delay_2_tone_Lab_2,4279,122,maintaskTrials_2_s_rv
pass,620ddeee49655b42f1242551,Group_JF,0,04cbb73480e16b0dd1318b3b32c0dbaefc83017771f404bf2042f67b6fa133cc,2001.7292289733887,True,keypress,testresponse_s_J,670,['Shorter'],choice-response,Shorter,620ec2cd3f3e26074333ad10,single_300ms_early_delay_2_tone_Lab_2,3546,123,maintaskTrials_2_s_rv
pass,620ddeee49655b42f1242551,Group_JF,0,04cbb73480e16b0dd1318b3b32c0dbaefc83017771f404bf2042f67b6fa133cc,2001.7292289733887,True,keypress,testresponse_l_F,280,['Longer'],choice-response,Longer,620ec2cd3f3e26074333ad10,single_300ms_late_delay_2_tone_Lab_7,3418,124,maintaskTrials_2_l_rv
pass,620ddeee49655b42f1242551,Group_JF,0,04cbb73480e16b0dd1318b3b32c0dbaefc83017771f404bf2042f67b6fa133cc,2001.7292289733887,False,keypress,testresponse_s_J,329,['Shorter'],choice-response,Longer,620ec2cd3f3e26074333ad10,single_300ms_early_delay_2_tone_Lab_4,3253,125,maintaskTrials_2_s_rv
pass,620ddeee49655b42f1242551,Group_JF,0,04cbb73480e16b0dd1318b3b32c0dbaefc83017771f404bf2042f67b6fa133cc,2001.7292289733887,False,keypress,testresponse_s_J,582,['Shorter'],choice-response,Longer,620ec2cd3f3e26074333ad10,single_300ms_late_delay_2_tone_Lab_3,3663,126,maintaskTrials_2_s_rv
pass,620ddeee49655b42f1242551,Group_JF,0,04cbb73480e16b0dd1318b3b32c0dbaefc83017771f404bf2042f67b6fa133cc,2001.7292289733887,False,keypress,testresponse_s_J,500,['Shorter'],choice-response,Longer,620ec2cd3f3e26074333ad10,single_300ms_late_delay_2_tone_Lab_4,3610,127,maintaskTrials_2_s_rv
pass,620ddeee49655b42f1242551,Group_JF,0,04cbb73480e16b0dd1318b3b32c0dbaefc83017771f404bf2042f67b6fa133cc,2001.7292289733887,True,keypress,testresponse_s_J,1043,['Shorter'],choice-response,Shorter,620ec2cd3f3e26074333ad10,single_300ms_early_delay_2_tone_Lab_1,4122,128,maintaskTrials_2_s_rv
pass,620ddeee49655b42f1242551,Group_JF,0,04cbb73480e16b0dd1318b3b32c0dbaefc83017771f404bf2042f67b6fa133cc,2001.7292289733887,False,keypress,testresponse_l_F,401,['Longer'],choice-response,Shorter,620ec2cd3f3e26074333ad10,single_300ms_ontime_delay_2_tone_Lab_7,3466,129,maintaskTrials_2_l_rv
pass,620ddeee49655b42f1242551,Group_JF,0,04cbb73480e16b0dd1318b3b32c0dbaefc83017771f404bf2042f67b6fa133cc,2001.7292289733887,True,keypress,testresponse_l_F,837,['Longer'],choice-response,Longer,620ec2cd3f3e26074333ad10,single_300ms_ontime_delay_2_tone_Lab_5,3861,130,maintaskTrials_2_l_rv
pass,620ddeee49655b42f1242551,Group_JF,0,04cbb73480e16b0dd1318b3b32c0dbaefc83017771f404bf2042f67b6fa133cc,2001.7292289733887,True,keypress,cat_catchRsp,928,['Cat meowing'],choice-response,Cat meowing,620ec2cd3f3e26074333ad10,cat_meowing,3499,131,Catch_cat
pass,620ddeee49655b42f1242551,Group_JF,0,04cbb73480e16b0dd1318b3b32c0dbaefc83017771f404bf2042f67b6fa133cc,2001.7292289733887,False,keypress,testresponse_s_J,850,['Shorter'],choice-response,Longer,620ec2cd3f3e26074333ad10,single_300ms_late_delay_2_tone_Lab_2,3910,132,maintaskTrials_2_s_rv
pass,620ddeee49655b42f1242551,Group_JF,0,04cbb73480e16b0dd1318b3b32c0dbaefc83017771f404bf2042f67b6fa133cc,2001.7292289733887,True,keypress,testresponse_l_F,1152,['Longer'],choice-response,Longer,620ec2cd3f3e26074333ad10,single_300ms_late_delay_2_tone_Lab_5,4288,133,maintaskTrials_2_l_rv
pass,620ddeee49655b42f1242551,Group_JF,0,04cbb73480e16b0dd1318b3b32c0dbaefc83017771f404bf2042f67b6fa133cc,2001.7292289733887,True,keypress,testresponse_l_F,592,['Longer'],choice-response,Longer,620ec2cd3f3e26074333ad10,single_300ms_ontime_delay_2_tone_Lab_8,3785,134,maintaskTrials_2_l_rv
pass,620ddeee49655b42f1242551,Group_JF,0,04cbb73480e16b0dd1318b3b32c0dbaefc83017771f404bf2042f67b6fa133cc,2001.7292289733887,True,keypress,testresponse_l_F,729,['Longer'],choice-response,Longer,620ec2cd3f3e26074333ad10,single_300ms_ontime_delay_2_tone_Lab_6,3745,135,maintaskTrials_2_l_rv
pass,620ddeee49655b42f1242551,Group_JF,0,04cbb73480e16b0dd1318b3b32c0dbaefc83017771f404bf2042f67b6fa133cc,2001.7292289733887,True,keypress,testresponse_s_J,567,['Shorter'],choice-response,Shorter,620ec2cd3f3e26074333ad10,single_300ms_ontime_delay_2_tone_Lab_1,3551,136,maintaskTrials_2_s_rv
pass,620ddeee49655b42f1242551,Group_JF,0,04cbb73480e16b0dd1318b3b32c0dbaefc83017771f404bf2042f67b6fa133cc,2001.7292289733887,True,keypress,testresponse_l_F,1136,['Longer'],choice-response,Longer,620ec2cd3f3e26074333ad10,single_300ms_late_delay_2_tone_Lab_6,4284,137,maintaskTrials_2_l_rv
pass,620ddeee49655b42f1242551,Group_JF,0,04cbb73480e16b0dd1318b3b32c0dbaefc83017771f404bf2042f67b6fa133cc,2001.7292289733887,True,keypress,testresponse_l_F,762,['Longer'],choice-response,Longer,620ec2cd3f3e26074333ad10,single_300ms_late_delay_2_tone_Lab_8,4008,138,maintaskTrials_2_l_rv
pass,620ddeee49655b42f1242551,Group_JF,0,04cbb73480e16b0dd1318b3b32c0dbaefc83017771f404bf2042f67b6fa133cc,2001.7292289733887,True,keypress,testresponse_l_F,721,['Longer'],choice-response,Longer,620ec2cd3f3e26074333ad10,single_300ms_early_delay_2_tone_Lab_8,3735,139,maintaskTrials_2_l_rv
pass,620ddeee49655b42f1242551,Group_JF,0,04cbb73480e16b0dd1318b3b32c0dbaefc83017771f404bf2042f67b6fa133cc,2001.7292289733887,True,keypress,testresponse_l_F,542,['Longer'],choice-response,Longer,620ec2cd3f3e26074333ad10,single_300ms_early_delay_2_tone_Lab_6,3559,140,maintaskTrials_2_l_rv
pass,620ddeee49655b42f1242551,Group_JF,0,04cbb73480e16b0dd1318b3b32c0dbaefc83017771f404bf2042f67b6fa133cc,2001.7292289733887,False,keypress,testresponse_l_F,460,['Longer'],choice-response,Shorter,620ec2cd3f3e26074333ad10,single_300ms_early_delay_2_tone_Lab_5,3373,141,maintaskTrials_2_l_rv
pass,620ddeee49655b42f1242551,Group_JF,0,04cbb73480e16b0dd1318b3b32c0dbaefc83017771f404bf2042f67b6fa133cc,2001.7292289733887,False,keypress,testresponse_s_J,445,['Shorter'],choice-response,Longer,620ec2cd3f3e26074333ad10,single_300ms_ontime_delay_2_tone_Lab_4,3461,142,maintaskTrials_2_s_rv
pass,620ddeee49655b42f1242551,Group_JF,0,04cbb73480e16b0dd1318b3b32c0dbaefc83017771f404bf2042f67b6fa133cc,2001.7292289733887,True,keypress,cat_catchRsp,665,['Cat meowing'],choice-response,Cat meowing,620ec2cd3f3e26074333ad10,cat_meowing,3537,143,Catch_cat
pass,620ddeee49655b42f1242551,Group_JF,0,04cbb73480e16b0dd1318b3b32c0dbaefc83017771f404bf2042f67b6fa133cc,2001.7292289733887,True,keypress,testresponse_s_J,597,['Shorter'],choice-response,Shorter,620ec2cd3f3e26074333ad10,single_300ms_late_delay_2_tone_Lab_1,3646,144,maintaskTrials_2_s_rv
pass,620ddeee49655b42f1242551,Group_JF,0,04cbb73480e16b0dd1318b3b32c0dbaefc83017771f404bf2042f67b6fa133cc,2001.7292289733887,False,keypress,testresponse_s_J,965,['Shorter'],choice-response,Longer,620ec2cd3f3e26074333ad10,single_300ms_early_delay_2_tone_Lab_3,3861,145,maintaskTrials_2_s_rv
pass,620ddeee49655b42f1242551,Group_JF,0,04cbb73480e16b0dd1318b3b32c0dbaefc83017771f404bf2042f67b6fa133cc,2001.7292289733887,False,keypress,testresponse_s_J,1246,['Shorter'],choice-response,Longer,620ec2cd3f3e26074333ad10,single_300ms_ontime_delay_2_tone_Lab_3,4269,146,maintaskTrials_2_s_rv
pass,620ddeee49655b42f1242551,Group_JF,0,04cbb73480e16b0dd1318b3b32c0dbaefc83017771f404bf2042f67b6fa133cc,2001.7292289733887,True,keypress,testresponse_l_F,625,['Longer'],choice-response,Longer,620ec2cd3f3e26074333ad10,single_300ms_early_delay_2_tone_Lab_7,3613,147,maintaskTrials_2_l_rv
pass,620ddeee49655b42f1242551,Group_JF,0,04cbb73480e16b0dd1318b3b32c0dbaefc83017771f404bf2042f67b6fa133cc,2001.7292289733887,False,keypress,testresponse_l_F,578,['Longer'],choice-response,Shorter,620ec2cd3f3e26074333ad10,single_300ms_late_delay_2_tone_Lab_7,3728,148,maintaskTrials_2_l_rv
pass,620ddeee49655b42f1242551,Group_JF,0,04cbb73480e16b0dd1318b3b32c0dbaefc83017771f404bf2042f67b6fa133cc,2001.7292289733887,False,keypress,testresponse_l_F,1396,['Longer'],choice-response,Shorter,620ec2cd3f3e26074333ad10,single_300ms_early_delay_2_tone_Lab_8,4362,149,maintaskTrials_2_l_rv
pass,620ddeee49655b42f1242551,Group_JF,0,04cbb73480e16b0dd1318b3b32c0dbaefc83017771f404bf2042f67b6fa133cc,2001.7292289733887,False,keypress,testresponse_l_F,572,['Longer'],choice-response,Shorter,620ec2cd3f3e26074333ad10,single_300ms_late_delay_2_tone_Lab_5,3700,150,maintaskTrials_2_l_rv
pass,620ddeee49655b42f1242551,Group_JF,0,04cbb73480e16b0dd1318b3b32c0dbaefc83017771f404bf2042f67b6fa133cc,2001.7292289733887,True,keypress,testresponse_s_J,528,['Shorter'],choice-response,Shorter,620ec2cd3f3e26074333ad10,single_300ms_ontime_delay_2_tone_Lab_2,3494,151,maintaskTrials_2_s_rv
pass,620ddeee49655b42f1242551,Group_JF,0,04cbb73480e16b0dd1318b3b32c0dbaefc83017771f404bf2042f67b6fa133cc,2001.7292289733887,True,keypress,testresponse_s_J,518,['Shorter'],choice-response,Shorter,620ec2cd3f3e26074333ad10,single_300ms_late_delay_2_tone_Lab_2,3625,152,maintaskTrials_2_s_rv
pass,620ddeee49655b42f1242551,Group_JF,0,04cbb73480e16b0dd1318b3b32c0dbaefc83017771f404bf2042f67b6fa133cc,2001.7292289733887,True,keypress,testresponse_s_J,633,['Shorter'],choice-response,Shorter,620ec2cd3f3e26074333ad10,single_300ms_late_delay_2_tone_Lab_1,3657,153,maintaskTrials_2_s_rv
pass,620ddeee49655b42f1242551,Group_JF,0,04cbb73480e16b0dd1318b3b32c0dbaefc83017771f404bf2042f67b6fa133cc,2001.7292289733887,False,keypress,testresponse_s_J,602,['Shorter'],choice-response,Longer,620ec2cd3f3e26074333ad10,single_300ms_ontime_delay_2_tone_Lab_1,3524,154,maintaskTrials_2_s_rv
pass,620ddeee49655b42f1242551,Group_JF,0,04cbb73480e16b0dd1318b3b32c0dbaefc83017771f404bf2042f67b6fa133cc,2001.7292289733887,True,keypress,cat_catchRsp,935,['Cat meowing'],choice-response,Cat meowing,620ec2cd3f3e26074333ad10,cat_meowing,3527,155,Catch_cat
pass,620ddeee49655b42f1242551,Group_JF,0,04cbb73480e16b0dd1318b3b32c0dbaefc83017771f404bf2042f67b6fa133cc,2001.7292289733887,True,keypress,testresponse_s_J,1273,['Shorter'],choice-response,Shorter,620ec2cd3f3e26074333ad10,single_300ms_ontime_delay_2_tone_Lab_3,4244,156,maintaskTrials_2_s_rv
pass,620ddeee49655b42f1242551,Group_JF,0,04cbb73480e16b0dd1318b3b32c0dbaefc83017771f404bf2042f67b6fa133cc,2001.7292289733887,True,keypress,testresponse_l_F,614,['Longer'],choice-response,Longer,620ec2cd3f3e26074333ad10,single_300ms_ontime_delay_2_tone_Lab_8,3683,157,maintaskTrials_2_l_rv
pass,620ddeee49655b42f1242551,Group_JF,0,04cbb73480e16b0dd1318b3b32c0dbaefc83017771f404bf2042f67b6fa133cc,2001.7292289733887,True,keypress,testresponse_s_J,602,['Shorter'],choice-response,Shorter,620ec2cd3f3e26074333ad10,single_300ms_ontime_delay_2_tone_Lab_4,3595,158,maintaskTrials_2_s_rv
pass,620ddeee49655b42f1242551,Group_JF,0,04cbb73480e16b0dd1318b3b32c0dbaefc83017771f404bf2042f67b6fa133cc,2001.7292289733887,False,keypress,testresponse_s_J,737,['Shorter'],choice-response,Longer,620ec2cd3f3e26074333ad10,single_300ms_early_delay_2_tone_Lab_4,3661,159,maintaskTrials_2_s_rv
pass,620ddeee49655b42f1242551,Group_JF,0,04cbb73480e16b0dd1318b3b32c0dbaefc83017771f404bf2042f67b6fa133cc,2001.7292289733887,True,keypress,testresponse_l_F,931,['Longer'],choice-response,Longer,620ec2cd3f3e26074333ad10,single_300ms_early_delay_2_tone_Lab_5,3887,160,maintaskTrials_2_l_rv
pass,620ddeee49655b42f1242551,Group_JF,0,04cbb73480e16b0dd1318b3b32c0dbaefc83017771f404bf2042f67b6fa133cc,2001.7292289733887,True,keypress,testresponse_l_F,579,['Longer'],choice-response,Longer,620ec2cd3f3e26074333ad10,single_300ms_late_delay_2_tone_Lab_8,3740,161,maintaskTrials_2_l_rv
pass,620ddeee49655b42f1242551,Group_JF,0,04cbb73480e16b0dd1318b3b32c0dbaefc83017771f404bf2042f67b6fa133cc,2001.7292289733887,False,keypress,testresponse_s_J,908,['Shorter'],choice-response,Longer,620ec2cd3f3e26074333ad10,single_300ms_late_delay_2_tone_Lab_4,4014,162,maintaskTrials_2_s_rv
pass,620ddeee49655b42f1242551,Group_JF,0,04cbb73480e16b0dd1318b3b32c0dbaefc83017771f404bf2042f67b6fa133cc,2001.7292289733887,True,keypress,testresponse_l_F,643,['Longer'],choice-response,Longer,620ec2cd3f3e26074333ad10,single_300ms_ontime_delay_2_tone_Lab_5,3685,163,maintaskTrials_2_l_rv
pass,620ddeee49655b42f1242551,Group_JF,0,04cbb73480e16b0dd1318b3b32c0dbaefc83017771f404bf2042f67b6fa133cc,2001.7292289733887,True,keypress,testresponse_l_F,371,['Longer'],choice-response,Longer,620ec2cd3f3e26074333ad10,single_300ms_ontime_delay_2_tone_Lab_6,3407,164,maintaskTrials_2_l_rv
pass,620ddeee49655b42f1242551,Group_JF,0,04cbb73480e16b0dd1318b3b32c0dbaefc83017771f404bf2042f67b6fa133cc,2001.7292289733887,True,keypress,testresponse_s_J,802,['Shorter'],choice-response,Shorter,620ec2cd3f3e26074333ad10,single_300ms_early_delay_2_tone_Lab_3,3706,165,maintaskTrials_2_s_rv
pass,620ddeee49655b42f1242551,Group_JF,0,04cbb73480e16b0dd1318b3b32c0dbaefc83017771f404bf2042f67b6fa133cc,2001.7292289733887,True,keypress,testresponse_s_J,731,['Shorter'],choice-response,Shorter,620ec2cd3f3e26074333ad10,single_300ms_early_delay_2_tone_Lab_1,3560,166,maintaskTrials_2_s_rv
pass,620ddeee49655b42f1242551,Group_JF,0,04cbb73480e16b0dd1318b3b32c0dbaefc83017771f404bf2042f67b6fa133cc,2001.7292289733887,True,keypress,cat_catchRsp,882,['Cat meowing'],choice-response,Cat meowing,620ec2cd3f3e26074333ad10,cat_meowing,3473,167,Catch_cat
pass,620ddeee49655b42f1242551,Group_JF,0,04cbb73480e16b0dd1318b3b32c0dbaefc83017771f404bf2042f67b6fa133cc,2001.7292289733887,True,keypress,testresponse_l_F,842,['Longer'],choice-response,Longer,620ec2cd3f3e26074333ad10,single_300ms_ontime_delay_2_tone_Lab_7,3879,168,maintaskTrials_2_l_rv
pass,620ddeee49655b42f1242551,Group_JF,0,04cbb73480e16b0dd1318b3b32c0dbaefc83017771f404bf2042f67b6fa133cc,2001.7292289733887,True,keypress,testresponse_l_F,1103,['Longer'],choice-response,Longer,620ec2cd3f3e26074333ad10,single_300ms_early_delay_2_tone_Lab_7,4110,169,maintaskTrials_2_l_rv
pass,620ddeee49655b42f1242551,Group_JF,0,04cbb73480e16b0dd1318b3b32c0dbaefc83017771f404bf2042f67b6fa133cc,2001.7292289733887,True,keypress,testresponse_l_F,1055,['Longer'],choice-response,Longer,620ec2cd3f3e26074333ad10,single_300ms_early_delay_2_tone_Lab_6,3990,170,maintaskTrials_2_l_rv
pass,620ddeee49655b42f1242551,Group_JF,0,04cbb73480e16b0dd1318b3b32c0dbaefc83017771f404bf2042f67b6fa133cc,2001.7292289733887,True,keypress,testresponse_s_J,613,['Shorter'],choice-response,Shorter,620ec2cd3f3e26074333ad10,single_300ms_early_delay_2_tone_Lab_2,3496,171,maintaskTrials_2_s_rv
pass,620ddeee49655b42f1242551,Group_JF,0,04cbb73480e16b0dd1318b3b32c0dbaefc83017771f404bf2042f67b6fa133cc,2001.7292289733887,False,keypress,testresponse_s_J,824,['Shorter'],choice-response,Longer,620ec2cd3f3e26074333ad10,single_300ms_late_delay_2_tone_Lab_3,3908,172,maintaskTrials_2_s_rv
pass,620ddeee49655b42f1242551,Group_JF,0,04cbb73480e16b0dd1318b3b32c0dbaefc83017771f404bf2042f67b6fa133cc,2001.7292289733887,True,keypress,testresponse_l_F,629,['Longer'],choice-response,Longer,620ec2cd3f3e26074333ad10,single_300ms_late_delay_2_tone_Lab_6,3768,173,maintaskTrials_2_l_rv
pass,620ddeee49655b42f1242551,Group_JF,0,04cbb73480e16b0dd1318b3b32c0dbaefc83017771f404bf2042f67b6fa133cc,2001.7292289733887,True,keypress,testresponse_l_F,523,['Longer'],choice-response,Longer,620ec2cd3f3e26074333ad10,single_300ms_late_delay_2_tone_Lab_6,3506,174,maintaskTrials_2_l_rv
pass,620ddeee49655b42f1242551,Group_JF,0,04cbb73480e16b0dd1318b3b32c0dbaefc83017771f404bf2042f67b6fa133cc,2001.7292289733887,False,keypress,testresponse_s_J,1118,['Shorter'],choice-response,Longer,620ec2cd3f3e26074333ad10,single_300ms_ontime_delay_2_tone_Lab_4,4109,175,maintaskTrials_2_s_rv
pass,620ddeee49655b42f1242551,Group_JF,0,04cbb73480e16b0dd1318b3b32c0dbaefc83017771f404bf2042f67b6fa133cc,2001.7292289733887,False,keypress,testresponse_l_F,527,['Longer'],choice-response,Shorter,620ec2cd3f3e26074333ad10,single_300ms_early_delay_2_tone_Lab_6,3487,176,maintaskTrials_2_l_rv
pass,620ddeee49655b42f1242551,Group_JF,0,04cbb73480e16b0dd1318b3b32c0dbaefc83017771f404bf2042f67b6fa133cc,2001.7292289733887,True,keypress,testresponse_l_F,373,['Longer'],choice-response,Longer,620ec2cd3f3e26074333ad10,single_300ms_late_delay_2_tone_Lab_8,3550,177,maintaskTrials_2_l_rv
pass,620ddeee49655b42f1242551,Group_JF,0,04cbb73480e16b0dd1318b3b32c0dbaefc83017771f404bf2042f67b6fa133cc,2001.7292289733887,True,keypress,testresponse_l_F,541,['Longer'],choice-response,Longer,620ec2cd3f3e26074333ad10,single_300ms_early_delay_2_tone_Lab_7,3520,178,maintaskTrials_2_l_rv
pass,620ddeee49655b42f1242551,Group_JF,0,04cbb73480e16b0dd1318b3b32c0dbaefc83017771f404bf2042f67b6fa133cc,2001.7292289733887,True,keypress,cat_catchRsp,952,['Cat meowing'],choice-response,Cat meowing,620ec2cd3f3e26074333ad10,cat_meowing,3554,179,Catch_cat
pass,620ddeee49655b42f1242551,Group_JF,0,04cbb73480e16b0dd1318b3b32c0dbaefc83017771f404bf2042f67b6fa133cc,2001.7292289733887,True,keypress,testresponse_l_F,446,['Longer'],choice-response,Longer,620ec2cd3f3e26074333ad10,single_300ms_ontime_delay_2_tone_Lab_7,3519,180,maintaskTrials_2_l_rv
pass,620ddeee49655b42f1242551,Group_JF,0,04cbb73480e16b0dd1318b3b32c0dbaefc83017771f404bf2042f67b6fa133cc,2001.7292289733887,True,keypress,testresponse_s_J,480,['Shorter'],choice-response,Shorter,620ec2cd3f3e26074333ad10,single_300ms_late_delay_2_tone_Lab_2,3611,181,maintaskTrials_2_s_rv
pass,620ddeee49655b42f1242551,Group_JF,0,04cbb73480e16b0dd1318b3b32c0dbaefc83017771f404bf2042f67b6fa133cc,2001.7292289733887,False,keypress,testresponse_s_J,668,['Shorter'],choice-response,Longer,620ec2cd3f3e26074333ad10,single_300ms_late_delay_2_tone_Lab_4,3762,182,maintaskTrials_2_s_rv
pass,620ddeee49655b42f1242551,Group_JF,0,04cbb73480e16b0dd1318b3b32c0dbaefc83017771f404bf2042f67b6fa133cc,2001.7292289733887,True,keypress,testresponse_l_F,688,['Longer'],choice-response,Longer,620ec2cd3f3e26074333ad10,single_300ms_late_delay_2_tone_Lab_7,3844,183,maintaskTrials_2_l_rv
pass,620ddeee49655b42f1242551,Group_JF,0,04cbb73480e16b0dd1318b3b32c0dbaefc83017771f404bf2042f67b6fa133cc,2001.7292289733887,True,keypress,testresponse_l_F,538,['Longer'],choice-response,Longer,620ec2cd3f3e26074333ad10,single_300ms_ontime_delay_2_tone_Lab_8,3623,184,maintaskTrials_2_l_rv
pass,620ddeee49655b42f1242551,Group_JF,0,04cbb73480e16b0dd1318b3b32c0dbaefc83017771f404bf2042f67b6fa133cc,2001.7292289733887,False,keypress,testresponse_s_J,1302,['Shorter'],choice-response,Longer,620ec2cd3f3e26074333ad10,single_300ms_ontime_delay_2_tone_Lab_3,4282,185,maintaskTrials_2_s_rv
pass,620ddeee49655b42f1242551,Group_JF,0,04cbb73480e16b0dd1318b3b32c0dbaefc83017771f404bf2042f67b6fa133cc,2001.7292289733887,False,keypress,testresponse_s_J,550,['Shorter'],choice-response,Longer,620ec2cd3f3e26074333ad10,single_300ms_ontime_delay_2_tone_Lab_1,3472,186,maintaskTrials_2_s_rv
pass,620ddeee49655b42f1242551,Group_JF,0,04cbb73480e16b0dd1318b3b32c0dbaefc83017771f404bf2042f67b6fa133cc,2001.7292289733887,True,keypress,testresponse_s_J,2208,['Shorter'],choice-response,Shorter,620ec2cd3f3e26074333ad10,single_300ms_early_delay_2_tone_Lab_1,5060,187,maintaskTrials_2_s_rv
pass,620ddeee49655b42f1242551,Group_JF,0,04cbb73480e16b0dd1318b3b32c0dbaefc83017771f404bf2042f67b6fa133cc,2001.7292289733887,True,keypress,testresponse_l_F,1010,['Longer'],choice-response,Longer,620ec2cd3f3e26074333ad10,single_300ms_early_delay_2_tone_Lab_5,3934,188,maintaskTrials_2_l_rv
pass,620ddeee49655b42f1242551,Group_JF,0,04cbb73480e16b0dd1318b3b32c0dbaefc83017771f404bf2042f67b6fa133cc,2001.7292289733887,False,keypress,testresponse_s_J,1852,['Shorter'],choice-response,Longer,620ec2cd3f3e26074333ad10,single_300ms_late_delay_2_tone_Lab_1,4856,189,maintaskTrials_2_s_rv
pass,620ddeee49655b42f1242551,Group_JF,0,04cbb73480e16b0dd1318b3b32c0dbaefc83017771f404bf2042f67b6fa133cc,2001.7292289733887,True,keypress,testresponse_s_J,454,['Shorter'],choice-response,Shorter,620ec2cd3f3e26074333ad10,single_300ms_ontime_delay_2_tone_Lab_2,3407,190,maintaskTrials_2_s_rv
pass,620ddeee49655b42f1242551,Group_JF,0,04cbb73480e16b0dd1318b3b32c0dbaefc83017771f404bf2042f67b6fa133cc,2001.7292289733887,True,keypress,cat_catchRsp,640,['Cat meowing'],choice-response,Cat meowing,620ec2cd3f3e26074333ad10,cat_meowing,3245,191,Catch_cat
pass,620ddeee49655b42f1242551,Group_JF,0,04cbb73480e16b0dd1318b3b32c0dbaefc83017771f404bf2042f67b6fa133cc,2001.7292289733887,False,keypress,testresponse_s_J,1373,['Shorter'],choice-response,Longer,620ec2cd3f3e26074333ad10,single_300ms_late_delay_2_tone_Lab_3,4434,192,maintaskTrials_2_s_rv
pass,620ddeee49655b42f1242551,Group_JF,0,04cbb73480e16b0dd1318b3b32c0dbaefc83017771f404bf2042f67b6fa133cc,2001.7292289733887,False,keypress,testresponse_s_J,464,['Shorter'],choice-response,Longer,620ec2cd3f3e26074333ad10,single_300ms_early_delay_2_tone_Lab_4,3381,193,maintaskTrials_2_s_rv
pass,620ddeee49655b42f1242551,Group_JF,0,04cbb73480e16b0dd1318b3b32c0dbaefc83017771f404bf2042f67b6fa133cc,2001.7292289733887,True,keypress,testresponse_l_F,445,['Longer'],choice-response,Longer,620ec2cd3f3e26074333ad10,single_300ms_early_delay_2_tone_Lab_8,3444,194,maintaskTrials_2_l_rv
pass,620ddeee49655b42f1242551,Group_JF,0,04cbb73480e16b0dd1318b3b32c0dbaefc83017771f404bf2042f67b6fa133cc,2001.7292289733887,True,keypress,testresponse_l_F,506,['Longer'],choice-response,Longer,620ec2cd3f3e26074333ad10,single_300ms_ontime_delay_2_tone_Lab_5,3524,195,maintaskTrials_2_l_rv
pass,620ddeee49655b42f1242551,Group_JF,0,04cbb73480e16b0dd1318b3b32c0dbaefc83017771f404bf2042f67b6fa133cc,2001.7292289733887,True,keypress,testresponse_l_F,717,['Longer'],choice-response,Longer,620ec2cd3f3e26074333ad10,single_300ms_ontime_delay_2_tone_Lab_6,3781,196,maintaskTrials_2_l_rv
pass,620ddeee49655b42f1242551,Group_JF,0,04cbb73480e16b0dd1318b3b32c0dbaefc83017771f404bf2042f67b6fa133cc,2001.7292289733887,False,keypress,testresponse_s_J,732,['Shorter'],choice-response,Longer,620ec2cd3f3e26074333ad10,single_300ms_early_delay_2_tone_Lab_3,3626,197,maintaskTrials_2_s_rv
pass,620ddeee49655b42f1242551,Group_JF,0,04cbb73480e16b0dd1318b3b32c0dbaefc83017771f404bf2042f67b6fa133cc,2001.7292289733887,False,keypress,testresponse_s_J,1560,['Shorter'],choice-response,Longer,620ec2cd3f3e26074333ad10,single_300ms_early_delay_2_tone_Lab_2,4411,198,maintaskTrials_2_s_rv
pass,620ddeee49655b42f1242551,Group_JF,0,04cbb73480e16b0dd1318b3b32c0dbaefc83017771f404bf2042f67b6fa133cc,2001.7292289733887,True,keypress,testresponse_l_F,579,['Longer'],choice-response,Longer,620ec2cd3f3e26074333ad10,single_300ms_late_delay_2_tone_Lab_5,3720,199,maintaskTrials_2_l_rv
pass,620ddeee49655b42f1242551,Group_JF,0,04cbb73480e16b0dd1318b3b32c0dbaefc83017771f404bf2042f67b6fa133cc,2001.7292289733887,False,keypress,testresponse_s_J,546,['Shorter'],choice-response,Longer,620ec2cd3f3e26074333ad10,single_300ms_late_delay_2_tone_Lab_4,3638,200,maintaskTrials_2_s_rv
pass,620ddeee49655b42f1242551,Group_JF,0,04cbb73480e16b0dd1318b3b32c0dbaefc83017771f404bf2042f67b6fa133cc,2001.7292289733887,True,keypress,testresponse_s_J,1889,['Shorter'],choice-response,Shorter,620ec2cd3f3e26074333ad10,single_300ms_ontime_delay_2_tone_Lab_2,4849,201,maintaskTrials_2_s_rv
pass,620ddeee49655b42f1242551,Group_JF,0,04cbb73480e16b0dd1318b3b32c0dbaefc83017771f404bf2042f67b6fa133cc,2001.7292289733887,False,keypress,testresponse_s_J,742,['Shorter'],choice-response,Longer,620ec2cd3f3e26074333ad10,single_300ms_late_delay_2_tone_Lab_2,3803,202,maintaskTrials_2_s_rv
pass,620ddeee49655b42f1242551,Group_JF,0,04cbb73480e16b0dd1318b3b32c0dbaefc83017771f404bf2042f67b6fa133cc,2001.7292289733887,True,keypress,cat_catchRsp,791,['Cat meowing'],choice-response,Cat meowing,620ec2cd3f3e26074333ad10,cat_meowing,3393,203,Catch_cat
pass,620ddeee49655b42f1242551,Group_JF,0,04cbb73480e16b0dd1318b3b32c0dbaefc83017771f404bf2042f67b6fa133cc,2001.7292289733887,True,keypress,testresponse_l_F,1209,['Longer'],choice-response,Longer,620ec2cd3f3e26074333ad10,single_300ms_early_delay_2_tone_Lab_5,4157,204,maintaskTrials_2_l_rv
pass,620ddeee49655b42f1242551,Group_JF,0,04cbb73480e16b0dd1318b3b32c0dbaefc83017771f404bf2042f67b6fa133cc,2001.7292289733887,True,keypress,testresponse_l_F,562,['Longer'],choice-response,Longer,620ec2cd3f3e26074333ad10,single_300ms_early_delay_2_tone_Lab_6,3509,205,maintaskTrials_2_l_rv
pass,620ddeee49655b42f1242551,Group_JF,0,04cbb73480e16b0dd1318b3b32c0dbaefc83017771f404bf2042f67b6fa133cc,2001.7292289733887,False,keypress,testresponse_s_J,758,['Shorter'],choice-response,Longer,620ec2cd3f3e26074333ad10,single_300ms_ontime_delay_2_tone_Lab_4,3760,206,maintaskTrials_2_s_rv
pass,620ddeee49655b42f1242551,Group_JF,0,04cbb73480e16b0dd1318b3b32c0dbaefc83017771f404bf2042f67b6fa133cc,2001.7292289733887,True,keypress,testresponse_l_F,389,['Longer'],choice-response,Longer,620ec2cd3f3e26074333ad10,single_300ms_late_delay_2_tone_Lab_7,3547,207,maintaskTrials_2_l_rv
pass,620ddeee49655b42f1242551,Group_JF,0,04cbb73480e16b0dd1318b3b32c0dbaefc83017771f404bf2042f67b6fa133cc,2001.7292289733887,False,keypress,testresponse_s_J,673,['Shorter'],choice-response,Longer,620ec2cd3f3e26074333ad10,single_300ms_early_delay_2_tone_Lab_4,3611,208,maintaskTrials_2_s_rv
pass,620ddeee49655b42f1242551,Group_JF,0,04cbb73480e16b0dd1318b3b32c0dbaefc83017771f404bf2042f67b6fa133cc,2001.7292289733887,False,keypress,testresponse_s_J,661,['Shorter'],choice-response,Longer,620ec2cd3f3e26074333ad10,single_300ms_late_delay_2_tone_Lab_3,3771,209,maintaskTrials_2_s_rv
pass,620ddeee49655b42f1242551,Group_JF,0,04cbb73480e16b0dd1318b3b32c0dbaefc83017771f404bf2042f67b6fa133cc,2001.7292289733887,True,keypress,testresponse_s_J,986,['Shorter'],choice-response,Shorter,620ec2cd3f3e26074333ad10,single_300ms_ontime_delay_2_tone_Lab_1,3928,210,maintaskTrials_2_s_rv
pass,620ddeee49655b42f1242551,Group_JF,0,04cbb73480e16b0dd1318b3b32c0dbaefc83017771f404bf2042f67b6fa133cc,2001.7292289733887,True,keypress,testresponse_l_F,809,['Longer'],choice-response,Longer,620ec2cd3f3e26074333ad10,single_300ms_early_delay_2_tone_Lab_7,3794,211,maintaskTrials_2_l_rv
pass,620ddeee49655b42f1242551,Group_JF,0,04cbb73480e16b0dd1318b3b32c0dbaefc83017771f404bf2042f67b6fa133cc,2001.7292289733887,False,keypress,testresponse_s_J,699,['Shorter'],choice-response,Longer,620ec2cd3f3e26074333ad10,single_300ms_ontime_delay_2_tone_Lab_3,3732,212,maintaskTrials_2_s_rv
pass,620ddeee49655b42f1242551,Group_JF,0,04cbb73480e16b0dd1318b3b32c0dbaefc83017771f404bf2042f67b6fa133cc,2001.7292289733887,True,keypress,testresponse_l_F,647,['Longer'],choice-response,Longer,620ec2cd3f3e26074333ad10,single_300ms_ontime_delay_2_tone_Lab_5,3704,213,maintaskTrials_2_l_rv
pass,620ddeee49655b42f1242551,Group_JF,0,04cbb73480e16b0dd1318b3b32c0dbaefc83017771f404bf2042f67b6fa133cc,2001.7292289733887,True,keypress,testresponse_s_J,495,['Shorter'],choice-response,Shorter,620ec2cd3f3e26074333ad10,single_300ms_early_delay_2_tone_Lab_2,3383,214,maintaskTrials_2_s_rv
pass,620ddeee49655b42f1242551,Group_JF,0,04cbb73480e16b0dd1318b3b32c0dbaefc83017771f404bf2042f67b6fa133cc,2001.7292289733887,True,keypress,cat_catchRsp,565,['Cat meowing'],choice-response,Cat meowing,620ec2cd3f3e26074333ad10,cat_meowing,3178,215,Catch_cat
pass,620ddeee49655b42f1242551,Group_JF,0,04cbb73480e16b0dd1318b3b32c0dbaefc83017771f404bf2042f67b6fa133cc,2001.7292289733887,True,keypress,testresponse_l_F,539,['Longer'],choice-response,Longer,620ec2cd3f3e26074333ad10,single_300ms_ontime_delay_2_tone_Lab_7,3600,216,maintaskTrials_2_l_rv
pass,620ddeee49655b42f1242551,Group_JF,0,04cbb73480e16b0dd1318b3b32c0dbaefc83017771f404bf2042f67b6fa133cc,2001.7292289733887,True,keypress,testresponse_l_F,414,['Longer'],choice-response,Longer,620ec2cd3f3e26074333ad10,single_300ms_late_delay_2_tone_Lab_8,3689,217,maintaskTrials_2_l_rv
pass,620ddeee49655b42f1242551,Group_JF,0,04cbb73480e16b0dd1318b3b32c0dbaefc83017771f404bf2042f67b6fa133cc,2001.7292289733887,True,keypress,testresponse_s_J,655,['Shorter'],choice-response,Shorter,620ec2cd3f3e26074333ad10,single_300ms_early_delay_2_tone_Lab_3,3537,218,maintaskTrials_2_s_rv
pass,620ddeee49655b42f1242551,Group_JF,0,04cbb73480e16b0dd1318b3b32c0dbaefc83017771f404bf2042f67b6fa133cc,2001.7292289733887,True,keypress,testresponse_l_F,546,['Longer'],choice-response,Longer,620ec2cd3f3e26074333ad10,single_300ms_ontime_delay_2_tone_Lab_8,3604,219,maintaskTrials_2_l_rv
pass,620ddeee49655b42f1242551,Group_JF,0,04cbb73480e16b0dd1318b3b32c0dbaefc83017771f404bf2042f67b6fa133cc,2001.7292289733887,True,keypress,testresponse_l_F,1076,['Longer'],choice-response,Longer,620ec2cd3f3e26074333ad10,single_300ms_ontime_delay_2_tone_Lab_6,4106,220,maintaskTrials_2_l_rv
pass,620ddeee49655b42f1242551,Group_JF,0,04cbb73480e16b0dd1318b3b32c0dbaefc83017771f404bf2042f67b6fa133cc,2001.7292289733887,True,keypress,testresponse_l_F,7304,['Longer'],choice-response,Longer,620ec2cd3f3e26074333ad10,single_300ms_early_delay_2_tone_Lab_8,10372,221,maintaskTrials_2_l_rv
pass,620ddeee49655b42f1242551,Group_JF,0,04cbb73480e16b0dd1318b3b32c0dbaefc83017771f404bf2042f67b6fa133cc,2001.7292289733887,True,keypress,testresponse_s_J,619,['Shorter'],choice-response,Shorter,620ec2cd3f3e26074333ad10,single_300ms_late_delay_2_tone_Lab_1,3668,222,maintaskTrials_2_s_rv
pass,620ddeee49655b42f1242551,Group_JF,0,04cbb73480e16b0dd1318b3b32c0dbaefc83017771f404bf2042f67b6fa133cc,2001.7292289733887,True,keypress,testresponse_s_J,1428,['Shorter'],choice-response,Shorter,620ec2cd3f3e26074333ad10,single_300ms_early_delay_2_tone_Lab_1,4268,223,maintaskTrials_2_s_rv
pass,620ddeee49655b42f1242551,Group_JF,0,04cbb73480e16b0dd1318b3b32c0dbaefc83017771f404bf2042f67b6fa133cc,2001.7292289733887,True,keypress,testresponse_l_F,589,['Longer'],choice-response,Longer,620ec2cd3f3e26074333ad10,single_300ms_late_delay_2_tone_Lab_6,3818,224,maintaskTrials_2_l_rv
pass,620ddeee49655b42f1242551,Group_JF,0,04cbb73480e16b0dd1318b3b32c0dbaefc83017771f404bf2042f67b6fa133cc,2001.7292289733887,True,keypress,testresponse_l_F,3591,['Longer'],choice-response,Longer,620ec2cd3f3e26074333ad10,single_300ms_late_delay_2_tone_Lab_5,6687,225,maintaskTrials_2_l_rv
pass,620ddeee49655b42f1242551,Group_JF,0,04cbb73480e16b0dd1318b3b32c0dbaefc83017771f404bf2042f67b6fa133cc,2001.7292289733887,True,keypress,testresponse_l_F,504,['Longer'],choice-response,Longer,620ec2cd3f3e26074333ad10,single_300ms_ontime_delay_2_tone_Lab_5,3519,226,maintaskTrials_2_l_rv
pass,620ddeee49655b42f1242551,Group_JF,0,04cbb73480e16b0dd1318b3b32c0dbaefc83017771f404bf2042f67b6fa133cc,2001.7292289733887,True,keypress,cat_catchRsp,2281,['Cat meowing'],choice-response,Cat meowing,620ec2cd3f3e26074333ad10,cat_meowing,4880,227,Catch_cat
pass,620ddeee49655b42f1242551,Group_JF,0,04cbb73480e16b0dd1318b3b32c0dbaefc83017771f404bf2042f67b6fa133cc,2001.7292289733887,True,keypress,testresponse_l_F,715,['Longer'],choice-response,Longer,620ec2cd3f3e26074333ad10,single_300ms_early_delay_2_tone_Lab_6,3678,228,maintaskTrials_2_l_rv
pass,620ddeee49655b42f1242551,Group_JF,0,04cbb73480e16b0dd1318b3b32c0dbaefc83017771f404bf2042f67b6fa133cc,2001.7292289733887,True,keypress,testresponse_l_F,840,['Longer'],choice-response,Longer,620ec2cd3f3e26074333ad10,single_300ms_early_delay_2_tone_Lab_5,3892,229,maintaskTrials_2_l_rv
pass,620ddeee49655b42f1242551,Group_JF,0,04cbb73480e16b0dd1318b3b32c0dbaefc83017771f404bf2042f67b6fa133cc,2001.7292289733887,True,keypress,testresponse_l_F,390,['Longer'],choice-response,Longer,620ec2cd3f3e26074333ad10,single_300ms_ontime_delay_2_tone_Lab_6,3535,230,maintaskTrials_2_l_rv
pass,620ddeee49655b42f1242551,Group_JF,0,04cbb73480e16b0dd1318b3b32c0dbaefc83017771f404bf2042f67b6fa133cc,2001.7292289733887,True,keypress,testresponse_l_F,320,['Longer'],choice-response,Longer,620ec2cd3f3e26074333ad10,single_300ms_ontime_delay_2_tone_Lab_8,3415,231,maintaskTrials_2_l_rv
pass,620ddeee49655b42f1242551,Group_JF,0,04cbb73480e16b0dd1318b3b32c0dbaefc83017771f404bf2042f67b6fa133cc,2001.7292289733887,False,keypress,testresponse_s_J,982,['Shorter'],choice-response,Longer,620ec2cd3f3e26074333ad10,single_300ms_ontime_delay_2_tone_Lab_2,3947,232,maintaskTrials_2_s_rv
pass,620ddeee49655b42f1242551,Group_JF,0,04cbb73480e16b0dd1318b3b32c0dbaefc83017771f404bf2042f67b6fa133cc,2001.7292289733887,True,keypress,testresponse_s_J,794,['Shorter'],choice-response,Shorter,620ec2cd3f3e26074333ad10,single_300ms_late_delay_2_tone_Lab_1,3847,233,maintaskTrials_2_s_rv
pass,620ddeee49655b42f1242551,Group_JF,0,04cbb73480e16b0dd1318b3b32c0dbaefc83017771f404bf2042f67b6fa133cc,2001.7292289733887,False,keypress,testresponse_s_J,815,['Shorter'],choice-response,Longer,620ec2cd3f3e26074333ad10,single_300ms_early_delay_2_tone_Lab_3,3725,234,maintaskTrials_2_s_rv
pass,620ddeee49655b42f1242551,Group_JF,0,04cbb73480e16b0dd1318b3b32c0dbaefc83017771f404bf2042f67b6fa133cc,2001.7292289733887,False,keypress,testresponse_s_J,609,['Shorter'],choice-response,Longer,620ec2cd3f3e26074333ad10,single_300ms_late_delay_2_tone_Lab_3,3701,235,maintaskTrials_2_s_rv
pass,620ddeee49655b42f1242551,Group_JF,0,04cbb73480e16b0dd1318b3b32c0dbaefc83017771f404bf2042f67b6fa133cc,2001.7292289733887,False,keypress,testresponse_s_J,1358,['Shorter'],choice-response,Longer,620ec2cd3f3e26074333ad10,single_300ms_ontime_delay_2_tone_Lab_3,4614,236,maintaskTrials_2_s_rv
pass,620ddeee49655b42f1242551,Group_JF,0,04cbb73480e16b0dd1318b3b32c0dbaefc83017771f404bf2042f67b6fa133cc,2001.7292289733887,True,keypress,testresponse_l_F,547,['Longer'],choice-response,Longer,620ec2cd3f3e26074333ad10,single_300ms_late_delay_2_tone_Lab_5,3664,237,maintaskTrials_2_l_rv
pass,620ddeee49655b42f1242551,Group_JF,0,04cbb73480e16b0dd1318b3b32c0dbaefc83017771f404bf2042f67b6fa133cc,2001.7292289733887,True,keypress,testresponse_s_J,729,['Shorter'],choice-response,Shorter,620ec2cd3f3e26074333ad10,single_300ms_early_delay_2_tone_Lab_2,3612,238,maintaskTrials_2_s_rv
pass,620ddeee49655b42f1242551,Group_JF,0,04cbb73480e16b0dd1318b3b32c0dbaefc83017771f404bf2042f67b6fa133cc,2001.7292289733887,True,keypress,cat_catchRsp,711,['Cat meowing'],choice-response,Cat meowing,620ec2cd3f3e26074333ad10,cat_meowing,3296,239,Catch_cat
pass,620ddeee49655b42f1242551,Group_JF,0,04cbb73480e16b0dd1318b3b32c0dbaefc83017771f404bf2042f67b6fa133cc,2001.7292289733887,False,keypress,testresponse_s_J,943,['Shorter'],choice-response,Longer,620ec2cd3f3e26074333ad10,single_300ms_ontime_delay_2_tone_Lab_4,3926,240,maintaskTrials_2_s_rv
pass,620ddeee49655b42f1242551,Group_JF,0,04cbb73480e16b0dd1318b3b32c0dbaefc83017771f404bf2042f67b6fa133cc,2001.7292289733887,True,keypress,testresponse_l_F,604,['Longer'],choice-response,Longer,620ec2cd3f3e26074333ad10,single_300ms_late_delay_2_tone_Lab_8,3780,241,maintaskTrials_2_l_rv
pass,620ddeee49655b42f1242551,Group_JF,0,04cbb73480e16b0dd1318b3b32c0dbaefc83017771f404bf2042f67b6fa133cc,2001.7292289733887,True,keypress,testresponse_l_F,374,['Longer'],choice-response,Longer,620ec2cd3f3e26074333ad10,single_300ms_late_delay_2_tone_Lab_6,3531,242,maintaskTrials_2_l_rv
pass,620ddeee49655b42f1242551,Group_JF,0,04cbb73480e16b0dd1318b3b32c0dbaefc83017771f404bf2042f67b6fa133cc,2001.7292289733887,True,keypress,testresponse_l_F,358,['Longer'],choice-response,Longer,620ec2cd3f3e26074333ad10,single_300ms_late_delay_2_tone_Lab_7,3557,243,maintaskTrials_2_l_rv
pass,620ddeee49655b42f1242551,Group_JF,0,04cbb73480e16b0dd1318b3b32c0dbaefc83017771f404bf2042f67b6fa133cc,2001.7292289733887,True,keypress,testresponse_s_J,884,['Shorter'],choice-response,Shorter,620ec2cd3f3e26074333ad10,single_300ms_late_delay_2_tone_Lab_2,4012,244,maintaskTrials_2_s_rv
pass,620ddeee49655b42f1242551,Group_JF,0,04cbb73480e16b0dd1318b3b32c0dbaefc83017771f404bf2042f67b6fa133cc,2001.7292289733887,True,keypress,testresponse_l_F,369,['Longer'],choice-response,Longer,620ec2cd3f3e26074333ad10,single_300ms_early_delay_2_tone_Lab_8,3372,245,maintaskTrials_2_l_rv
pass,620ddeee49655b42f1242551,Group_JF,0,04cbb73480e16b0dd1318b3b32c0dbaefc83017771f404bf2042f67b6fa133cc,2001.7292289733887,True,keypress,testresponse_s_J,3206,['Shorter'],choice-response,Shorter,620ec2cd3f3e26074333ad10,single_300ms_early_delay_2_tone_Lab_1,6052,246,maintaskTrials_2_s_rv
pass,620ddeee49655b42f1242551,Group_JF,0,04cbb73480e16b0dd1318b3b32c0dbaefc83017771f404bf2042f67b6fa133cc,2001.7292289733887,False,keypress,testresponse_l_F,1777,['Longer'],choice-response,Shorter,620ec2cd3f3e26074333ad10,single_300ms_ontime_delay_2_tone_Lab_7,4816,247,maintaskTrials_2_l_rv
pass,620ddeee49655b42f1242551,Group_JF,0,04cbb73480e16b0dd1318b3b32c0dbaefc83017771f404bf2042f67b6fa133cc,2001.7292289733887,False,keypress,testresponse_s_J,1313,['Shorter'],choice-response,Longer,620ec2cd3f3e26074333ad10,single_300ms_early_delay_2_tone_Lab_4,4212,248,maintaskTrials_2_s_rv
pass,620ddeee49655b42f1242551,Group_JF,0,04cbb73480e16b0dd1318b3b32c0dbaefc83017771f404bf2042f67b6fa133cc,2001.7292289733887,False,keypress,testresponse_s_J,1345,['Shorter'],choice-response,Longer,620ec2cd3f3e26074333ad10,single_300ms_late_delay_2_tone_Lab_4,4425,249,maintaskTrials_2_s_rv
pass,620ddeee49655b42f1242551,Group_JF,0,04cbb73480e16b0dd1318b3b32c0dbaefc83017771f404bf2042f67b6fa133cc,2001.7292289733887,True,keypress,testresponse_l_F,432,['Longer'],choice-response,Longer,620ec2cd3f3e26074333ad10,single_300ms_early_delay_2_tone_Lab_7,3403,250,maintaskTrials_2_l_rv
pass,620ddeee49655b42f1242551,Group_JF,0,04cbb73480e16b0dd1318b3b32c0dbaefc83017771f404bf2042f67b6fa133cc,2001.7292289733887,True,keypress,cat_catchRsp,3696,['Cat meowing'],choice-response,Cat meowing,620ec2cd3f3e26074333ad10,cat_meowing,6280,251,Catch_cat
pass,620ddeee49655b42f1242551,Group_JF,0,04cbb73480e16b0dd1318b3b32c0dbaefc83017771f404bf2042f67b6fa133cc,2001.7292289733887,True,keypress,testresponse_s_J,756,['Shorter'],choice-response,Shorter,620ec2cd3f3e26074333ad10,single_300ms_ontime_delay_2_tone_Lab_1,3699,252,maintaskTrials_2_s_rv
pass,620ddeee49655b42f1242551,Group_JF,0,04cbb73480e16b0dd1318b3b32c0dbaefc83017771f404bf2042f67b6fa133cc,2001.7292289733887,False,keypress,testresponse_s_J,1050,['Shorter'],choice-response,Longer,620ec2cd3f3e26074333ad10,single_300ms_early_delay_2_tone_Lab_3,4144,253,maintaskTrials_2_s_rv
pass,620ddeee49655b42f1242551,Group_JF,0,04cbb73480e16b0dd1318b3b32c0dbaefc83017771f404bf2042f67b6fa133cc,2001.7292289733887,True,keypress,testresponse_l_F,803,['Longer'],choice-response,Longer,620ec2cd3f3e26074333ad10,single_300ms_early_delay_2_tone_Lab_6,3767,254,maintaskTrials_2_l_rv
pass,620ddeee49655b42f1242551,Group_JF,0,04cbb73480e16b0dd1318b3b32c0dbaefc83017771f404bf2042f67b6fa133cc,2001.7292289733887,True,keypress,testresponse_l_F,416,['Longer'],choice-response,Longer,620ec2cd3f3e26074333ad10,single_300ms_ontime_delay_2_tone_Lab_6,3469,255,maintaskTrials_2_l_rv
pass,620ddeee49655b42f1242551,Group_JF,0,04cbb73480e16b0dd1318b3b32c0dbaefc83017771f404bf2042f67b6fa133cc,2001.7292289733887,True,keypress,testresponse_s_J,548,['Shorter'],choice-response,Shorter,620ec2cd3f3e26074333ad10,single_300ms_early_delay_2_tone_Lab_1,3385,256,maintaskTrials_2_s_rv
pass,620ddeee49655b42f1242551,Group_JF,0,04cbb73480e16b0dd1318b3b32c0dbaefc83017771f404bf2042f67b6fa133cc,2001.7292289733887,True,keypress,testresponse_s_J,511,['Shorter'],choice-response,Shorter,620ec2cd3f3e26074333ad10,single_300ms_ontime_delay_2_tone_Lab_3,3504,257,maintaskTrials_2_s_rv
pass,620ddeee49655b42f1242551,Group_JF,0,04cbb73480e16b0dd1318b3b32c0dbaefc83017771f404bf2042f67b6fa133cc,2001.7292289733887,False,keypress,testresponse_s_J,562,['Shorter'],choice-response,Longer,620ec2cd3f3e26074333ad10,single_300ms_early_delay_2_tone_Lab_4,3500,258,maintaskTrials_2_s_rv
pass,620ddeee49655b42f1242551,Group_JF,0,04cbb73480e16b0dd1318b3b32c0dbaefc83017771f404bf2042f67b6fa133cc,2001.7292289733887,False,keypress,testresponse_l_F,449,['Longer'],choice-response,Shorter,620ec2cd3f3e26074333ad10,single_300ms_ontime_delay_2_tone_Lab_5,3455,259,maintaskTrials_2_l_rv
pass,620ddeee49655b42f1242551,Group_JF,0,04cbb73480e16b0dd1318b3b32c0dbaefc83017771f404bf2042f67b6fa133cc,2001.7292289733887,True,keypress,testresponse_l_F,503,['Longer'],choice-response,Longer,620ec2cd3f3e26074333ad10,single_300ms_late_delay_2_tone_Lab_6,3668,260,maintaskTrials_2_l_rv
pass,620ddeee49655b42f1242551,Group_JF,0,04cbb73480e16b0dd1318b3b32c0dbaefc83017771f404bf2042f67b6fa133cc,2001.7292289733887,True,keypress,testresponse_l_F,404,['Longer'],choice-response,Longer,620ec2cd3f3e26074333ad10,single_300ms_ontime_delay_2_tone_Lab_8,3485,261,maintaskTrials_2_l_rv
pass,620ddeee49655b42f1242551,Group_JF,0,04cbb73480e16b0dd1318b3b32c0dbaefc83017771f404bf2042f67b6fa133cc,2001.7292289733887,False,keypress,testresponse_s_J,817,['Shorter'],choice-response,Longer,620ec2cd3f3e26074333ad10,single_300ms_ontime_delay_2_tone_Lab_4,3794,262,maintaskTrials_2_s_rv
pass,620ddeee49655b42f1242551,Group_JF,0,04cbb73480e16b0dd1318b3b32c0dbaefc83017771f404bf2042f67b6fa133cc,2001.7292289733887,True,keypress,testresponse_s_J,533,['Shorter'],choice-response,Shorter,620ec2cd3f3e26074333ad10,single_300ms_ontime_delay_2_tone_Lab_1,3472,263,maintaskTrials_2_s_rv
pass,620ddeee49655b42f1242551,Group_JF,0,04cbb73480e16b0dd1318b3b32c0dbaefc83017771f404bf2042f67b6fa133cc,2001.7292289733887,True,keypress,bird_catchRsp,1191,['Bird singing'],choice-response,Bird singing,620ec2cd3f3e26074333ad10,songbird,3780,264,Catch_bird
pass,620ddeee49655b42f1242551,Group_JF,0,04cbb73480e16b0dd1318b3b32c0dbaefc83017771f404bf2042f67b6fa133cc,2001.7292289733887,True,keypress,testresponse_s_J,495,['Shorter'],choice-response,Shorter,620ec2cd3f3e26074333ad10,single_300ms_late_delay_2_tone_Lab_3,3622,265,maintaskTrials_2_s_rv
pass,620ddeee49655b42f1242551,Group_JF,0,04cbb73480e16b0dd1318b3b32c0dbaefc83017771f404bf2042f67b6fa133cc,2001.7292289733887,True,keypress,testresponse_s_J,436,['Shorter'],choice-response,Shorter,620ec2cd3f3e26074333ad10,single_300ms_ontime_delay_2_tone_Lab_2,3407,266,maintaskTrials_2_s_rv
pass,620ddeee49655b42f1242551,Group_JF,0,04cbb73480e16b0dd1318b3b32c0dbaefc83017771f404bf2042f67b6fa133cc,2001.7292289733887,True,keypress,testresponse_s_J,2867,['Shorter'],choice-response,Shorter,620ec2cd3f3e26074333ad10,single_300ms_late_delay_2_tone_Lab_2,5927,267,maintaskTrials_2_s_rv
pass,620ddeee49655b42f1242551,Group_JF,0,04cbb73480e16b0dd1318b3b32c0dbaefc83017771f404bf2042f67b6fa133cc,2001.7292289733887,False,keypress,testresponse_s_J,874,['Shorter'],choice-response,Longer,620ec2cd3f3e26074333ad10,single_300ms_late_delay_2_tone_Lab_4,4000,268,maintaskTrials_2_s_rv
pass,620ddeee49655b42f1242551,Group_JF,0,04cbb73480e16b0dd1318b3b32c0dbaefc83017771f404bf2042f67b6fa133cc,2001.7292289733887,True,keypress,testresponse_l_F,825,['Longer'],choice-response,Longer,620ec2cd3f3e26074333ad10,single_300ms_late_delay_2_tone_Lab_7,3965,269,maintaskTrials_2_l_rv
pass,620ddeee49655b42f1242551,Group_JF,0,04cbb73480e16b0dd1318b3b32c0dbaefc83017771f404bf2042f67b6fa133cc,2001.7292289733887,True,keypress,testresponse_l_F,930,['Longer'],choice-response,Longer,620ec2cd3f3e26074333ad10,single_300ms_early_delay_2_tone_Lab_7,3894,270,maintaskTrials_2_l_rv
pass,620ddeee49655b42f1242551,Group_JF,0,04cbb73480e16b0dd1318b3b32c0dbaefc83017771f404bf2042f67b6fa133cc,2001.7292289733887,True,keypress,testresponse_l_F,599,['Longer'],choice-response,Longer,620ec2cd3f3e26074333ad10,single_300ms_ontime_delay_2_tone_Lab_7,3644,271,maintaskTrials_2_l_rv
pass,620ddeee49655b42f1242551,Group_JF,0,04cbb73480e16b0dd1318b3b32c0dbaefc83017771f404bf2042f67b6fa133cc,2001.7292289733887,True,keypress,testresponse_l_F,816,['Longer'],choice-response,Longer,620ec2cd3f3e26074333ad10,single_300ms_early_delay_2_tone_Lab_5,3767,272,maintaskTrials_2_l_rv
pass,620ddeee49655b42f1242551,Group_JF,0,04cbb73480e16b0dd1318b3b32c0dbaefc83017771f404bf2042f67b6fa133cc,2001.7292289733887,True,keypress,testresponse_l_F,595,['Longer'],choice-response,Longer,620ec2cd3f3e26074333ad10,single_300ms_late_delay_2_tone_Lab_5,3741,273,maintaskTrials_2_l_rv
pass,620ddeee49655b42f1242551,Group_JF,0,04cbb73480e16b0dd1318b3b32c0dbaefc83017771f404bf2042f67b6fa133cc,2001.7292289733887,True,keypress,testresponse_l_F,581,['Longer'],choice-response,Longer,620ec2cd3f3e26074333ad10,single_300ms_early_delay_2_tone_Lab_8,3582,274,maintaskTrials_2_l_rv
pass,620ddeee49655b42f1242551,Group_JF,0,04cbb73480e16b0dd1318b3b32c0dbaefc83017771f404bf2042f67b6fa133cc,2001.7292289733887,True,keypress,testresponse_l_F,535,['Longer'],choice-response,Longer,620ec2cd3f3e26074333ad10,single_300ms_late_delay_2_tone_Lab_8,3717,275,maintaskTrials_2_l_rv
pass,620ddeee49655b42f1242551,Group_JF,0,04cbb73480e16b0dd1318b3b32c0dbaefc83017771f404bf2042f67b6fa133cc,2001.7292289733887,True,keypress,bird_catchRsp,784,['Bird singing'],choice-response,Bird singing,620ec2cd3f3e26074333ad10,songbird,3405,276,Catch_bird
pass,620ddeee49655b42f1242551,Group_JF,0,04cbb73480e16b0dd1318b3b32c0dbaefc83017771f404bf2042f67b6fa133cc,2001.7292289733887,True,keypress,testresponse_s_J,1207,['Shorter'],choice-response,Shorter,620ec2cd3f3e26074333ad10,single_300ms_late_delay_2_tone_Lab_1,4247,277,maintaskTrials_2_s_rv
pass,620ddeee49655b42f1242551,Group_JF,0,04cbb73480e16b0dd1318b3b32c0dbaefc83017771f404bf2042f67b6fa133cc,2001.7292289733887,False,keypress,testresponse_s_J,1356,['Shorter'],choice-response,Longer,620ec2cd3f3e26074333ad10,single_300ms_early_delay_2_tone_Lab_2,4256,278,maintaskTrials_2_s_rv
pass,620ddeee49655b42f1242551,Group_JF,0,04cbb73480e16b0dd1318b3b32c0dbaefc83017771f404bf2042f67b6fa133cc,2001.7292289733887,True,keypress,testresponse_s_J,1103,['Shorter'],choice-response,Shorter,620ec2cd3f3e26074333ad10,single_300ms_early_delay_2_tone_Lab_3,3994,279,maintaskTrials_2_s_rv
pass,620ddeee49655b42f1242551,Group_JF,0,04cbb73480e16b0dd1318b3b32c0dbaefc83017771f404bf2042f67b6fa133cc,2001.7292289733887,True,keypress,testresponse_l_F,574,['Longer'],choice-response,Longer,620ec2cd3f3e26074333ad10,single_300ms_ontime_delay_2_tone_Lab_5,3604,280,maintaskTrials_2_l_rv
pass,620ddeee49655b42f1242551,Group_JF,0,04cbb73480e16b0dd1318b3b32c0dbaefc83017771f404bf2042f67b6fa133cc,2001.7292289733887,True,keypress,testresponse_l_F,582,['Longer'],choice-response,Longer,620ec2cd3f3e26074333ad10,single_300ms_late_delay_2_tone_Lab_6,3732,281,maintaskTrials_2_l_rv
pass,620ddeee49655b42f1242551,Group_JF,0,04cbb73480e16b0dd1318b3b32c0dbaefc83017771f404bf2042f67b6fa133cc,2001.7292289733887,True,keypress,testresponse_l_F,413,['Longer'],choice-response,Longer,620ec2cd3f3e26074333ad10,single_300ms_late_delay_2_tone_Lab_5,3532,282,maintaskTrials_2_l_rv
pass,620ddeee49655b42f1242551,Group_JF,0,04cbb73480e16b0dd1318b3b32c0dbaefc83017771f404bf2042f67b6fa133cc,2001.7292289733887,False,keypress,testresponse_s_J,379,['Shorter'],choice-response,Longer,620ec2cd3f3e26074333ad10,single_300ms_late_delay_2_tone_Lab_2,3428,283,maintaskTrials_2_s_rv
pass,620ddeee49655b42f1242551,Group_JF,0,04cbb73480e16b0dd1318b3b32c0dbaefc83017771f404bf2042f67b6fa133cc,2001.7292289733887,False,keypress,testresponse_s_J,419,['Shorter'],choice-response,Longer,620ec2cd3f3e26074333ad10,single_300ms_ontime_delay_2_tone_Lab_2,3732,284,maintaskTrials_2_s_rv
pass,620ddeee49655b42f1242551,Group_JF,0,04cbb73480e16b0dd1318b3b32c0dbaefc83017771f404bf2042f67b6fa133cc,2001.7292289733887,True,keypress,testresponse_s_J,550,['Shorter'],choice-response,Shorter,620ec2cd3f3e26074333ad10,single_300ms_early_delay_2_tone_Lab_1,3422,285,maintaskTrials_2_s_rv
pass,620ddeee49655b42f1242551,Group_JF,0,04cbb73480e16b0dd1318b3b32c0dbaefc83017771f404bf2042f67b6fa133cc,2001.7292289733887,True,keypress,testresponse_l_F,527,['Longer'],choice-response,Longer,620ec2cd3f3e26074333ad10,single_300ms_ontime_delay_2_tone_Lab_8,3584,286,maintaskTrials_2_l_rv
pass,620ddeee49655b42f1242551,Group_JF,0,04cbb73480e16b0dd1318b3b32c0dbaefc83017771f404bf2042f67b6fa133cc,2001.7292289733887,True,keypress,testresponse_l_F,663,['Longer'],choice-response,Longer,620ec2cd3f3e26074333ad10,single_300ms_late_delay_2_tone_Lab_7,3936,287,maintaskTrials_2_l_rv
pass,620ddeee49655b42f1242551,Group_JF,0,04cbb73480e16b0dd1318b3b32c0dbaefc83017771f404bf2042f67b6fa133cc,2001.7292289733887,True,keypress,bird_catchRsp,1252,['Bird singing'],choice-response,Bird singing,620ec2cd3f3e26074333ad10,songbird,3854,288,Catch_bird
pass,620ddeee49655b42f1242551,Group_JF,0,04cbb73480e16b0dd1318b3b32c0dbaefc83017771f404bf2042f67b6fa133cc,2001.7292289733887,False,keypress,testresponse_s_J,654,['Shorter'],choice-response,Longer,620ec2cd3f3e26074333ad10,single_300ms_late_delay_2_tone_Lab_4,3755,289,maintaskTrials_2_s_rv
pass,620ddeee49655b42f1242551,Group_JF,0,04cbb73480e16b0dd1318b3b32c0dbaefc83017771f404bf2042f67b6fa133cc,2001.7292289733887,False,keypress,testresponse_s_J,621,['Shorter'],choice-response,Longer,620ec2cd3f3e26074333ad10,single_300ms_early_delay_2_tone_Lab_4,3558,290,maintaskTrials_2_s_rv
pass,620ddeee49655b42f1242551,Group_JF,0,04cbb73480e16b0dd1318b3b32c0dbaefc83017771f404bf2042f67b6fa133cc,2001.7292289733887,True,keypress,testresponse_l_F,1792,['Longer'],choice-response,Longer,620ec2cd3f3e26074333ad10,single_300ms_early_delay_2_tone_Lab_8,4884,291,maintaskTrials_2_l_rv
pass,620ddeee49655b42f1242551,Group_JF,0,04cbb73480e16b0dd1318b3b32c0dbaefc83017771f404bf2042f67b6fa133cc,2001.7292289733887,True,keypress,testresponse_l_F,2511,['Longer'],choice-response,Longer,620ec2cd3f3e26074333ad10,single_300ms_early_delay_2_tone_Lab_5,5468,292,maintaskTrials_2_l_rv
pass,620ddeee49655b42f1242551,Group_JF,0,04cbb73480e16b0dd1318b3b32c0dbaefc83017771f404bf2042f67b6fa133cc,2001.7292289733887,True,keypress,testresponse_l_F,1227,['Longer'],choice-response,Longer,620ec2cd3f3e26074333ad10,single_300ms_early_delay_2_tone_Lab_6,4182,293,maintaskTrials_2_l_rv
pass,620ddeee49655b42f1242551,Group_JF,0,04cbb73480e16b0dd1318b3b32c0dbaefc83017771f404bf2042f67b6fa133cc,2001.7292289733887,True,keypress,testresponse_s_J,2053,['Shorter'],choice-response,Shorter,620ec2cd3f3e26074333ad10,single_300ms_late_delay_2_tone_Lab_3,5141,294,maintaskTrials_2_s_rv
pass,620ddeee49655b42f1242551,Group_JF,0,04cbb73480e16b0dd1318b3b32c0dbaefc83017771f404bf2042f67b6fa133cc,2001.7292289733887,True,keypress,testresponse_l_F,1081,['Longer'],choice-response,Longer,620ec2cd3f3e26074333ad10,single_300ms_ontime_delay_2_tone_Lab_6,4161,295,maintaskTrials_2_l_rv
pass,620ddeee49655b42f1242551,Group_JF,0,04cbb73480e16b0dd1318b3b32c0dbaefc83017771f404bf2042f67b6fa133cc,2001.7292289733887,True,keypress,testresponse_l_F,603,['Longer'],choice-response,Longer,620ec2cd3f3e26074333ad10,single_300ms_late_delay_2_tone_Lab_8,3786,296,maintaskTrials_2_l_rv
pass,620ddeee49655b42f1242551,Group_JF,0,04cbb73480e16b0dd1318b3b32c0dbaefc83017771f404bf2042f67b6fa133cc,2001.7292289733887,False,keypress,testresponse_s_J,886,['Shorter'],choice-response,Longer,620ec2cd3f3e26074333ad10,single_300ms_ontime_delay_2_tone_Lab_4,3916,297,maintaskTrials_2_s_rv
pass,620ddeee49655b42f1242551,Group_JF,0,04cbb73480e16b0dd1318b3b32c0dbaefc83017771f404bf2042f67b6fa133cc,2001.7292289733887,True,keypress,testresponse_l_F,366,['Longer'],choice-response,Longer,620ec2cd3f3e26074333ad10,single_300ms_ontime_delay_2_tone_Lab_7,3459,298,maintaskTrials_2_l_rv
pass,620ddeee49655b42f1242551,Group_JF,0,04cbb73480e16b0dd1318b3b32c0dbaefc83017771f404bf2042f67b6fa133cc,2001.7292289733887,True,keypress,testresponse_l_F,712,['Longer'],choice-response,Longer,620ec2cd3f3e26074333ad10,single_300ms_early_delay_2_tone_Lab_7,3691,299,maintaskTrials_2_l_rv
pass,620ddeee49655b42f1242551,Group_JF,0,04cbb73480e16b0dd1318b3b32c0dbaefc83017771f404bf2042f67b6fa133cc,2001.7292289733887,True,keypress,bird_catchRsp,855,['Bird singing'],choice-response,Bird singing,620ec2cd3f3e26074333ad10,songbird,3470,300,Catch_bird
pass,620ddeee49655b42f1242551,Group_JF,0,04cbb73480e16b0dd1318b3b32c0dbaefc83017771f404bf2042f67b6fa133cc,2001.7292289733887,True,keypress,testresponse_s_J,486,['Shorter'],choice-response,Shorter,620ec2cd3f3e26074333ad10,single_300ms_ontime_delay_2_tone_Lab_1,3454,301,maintaskTrials_2_s_rv
pass,620ddeee49655b42f1242551,Group_JF,0,04cbb73480e16b0dd1318b3b32c0dbaefc83017771f404bf2042f67b6fa133cc,2001.7292289733887,True,keypress,testresponse_s_J,777,['Shorter'],choice-response,Shorter,620ec2cd3f3e26074333ad10,single_300ms_late_delay_2_tone_Lab_1,3802,302,maintaskTrials_2_s_rv
pass,620ddeee49655b42f1242551,Group_JF,0,04cbb73480e16b0dd1318b3b32c0dbaefc83017771f404bf2042f67b6fa133cc,2001.7292289733887,False,keypress,testresponse_s_J,595,['Shorter'],choice-response,Longer,620ec2cd3f3e26074333ad10,single_300ms_ontime_delay_2_tone_Lab_3,3565,303,maintaskTrials_2_s_rv
pass,620ddeee49655b42f1242551,Group_JF,0,04cbb73480e16b0dd1318b3b32c0dbaefc83017771f404bf2042f67b6fa133cc,2001.7292289733887,False,keypress,testresponse_s_J,615,['Shorter'],choice-response,Longer,620ec2cd3f3e26074333ad10,single_300ms_early_delay_2_tone_Lab_2,3485,304,maintaskTrials_2_s_rv
pass,620ddeee49655b42f1242551,Group_JF,0,04cbb73480e16b0dd1318b3b32c0dbaefc83017771f404bf2042f67b6fa133cc,2001.7292289733887,True,keypress,testresponse_s_J,1234,['Shorter'],choice-response,Shorter,620ec2cd3f3e26074333ad10,single_300ms_late_delay_2_tone_Lab_2,4288,305,maintaskTrials_2_s_rv
pass,620ddeee49655b42f1242551,Group_JF,0,04cbb73480e16b0dd1318b3b32c0dbaefc83017771f404bf2042f67b6fa133cc,2001.7292289733887,True,keypress,testresponse_l_F,561,['Longer'],choice-response,Longer,620ec2cd3f3e26074333ad10,single_300ms_ontime_delay_2_tone_Lab_8,3652,306,maintaskTrials_2_l_rv
pass,620ddeee49655b42f1242551,Group_JF,0,04cbb73480e16b0dd1318b3b32c0dbaefc83017771f404bf2042f67b6fa133cc,2001.7292289733887,True,keypress,testresponse_l_F,543,['Longer'],choice-response,Longer,620ec2cd3f3e26074333ad10,single_300ms_ontime_delay_2_tone_Lab_5,3607,307,maintaskTrials_2_l_rv
pass,620ddeee49655b42f1242551,Group_JF,0,04cbb73480e16b0dd1318b3b32c0dbaefc83017771f404bf2042f67b6fa133cc,2001.7292289733887,False,keypress,testresponse_s_J,1644,['Shorter'],choice-response,Longer,620ec2cd3f3e26074333ad10,single_300ms_ontime_delay_2_tone_Lab_2,4715,308,maintaskTrials_2_s_rv
pass,620ddeee49655b42f1242551,Group_JF,0,04cbb73480e16b0dd1318b3b32c0dbaefc83017771f404bf2042f67b6fa133cc,2001.7292289733887,False,keypress,testresponse_s_J,576,['Shorter'],choice-response,Longer,620ec2cd3f3e26074333ad10,single_300ms_early_delay_2_tone_Lab_4,3487,309,maintaskTrials_2_s_rv
pass,620ddeee49655b42f1242551,Group_JF,0,04cbb73480e16b0dd1318b3b32c0dbaefc83017771f404bf2042f67b6fa133cc,2001.7292289733887,True,keypress,testresponse_l_F,496,['Longer'],choice-response,Longer,620ec2cd3f3e26074333ad10,single_300ms_late_delay_2_tone_Lab_6,3634,310,maintaskTrials_2_l_rv
pass,620ddeee49655b42f1242551,Group_JF,0,04cbb73480e16b0dd1318b3b32c0dbaefc83017771f404bf2042f67b6fa133cc,2001.7292289733887,False,keypress,testresponse_s_J,810,['Shorter'],choice-response,Longer,620ec2cd3f3e26074333ad10,single_300ms_late_delay_2_tone_Lab_3,3868,311,maintaskTrials_2_s_rv
pass,620ddeee49655b42f1242551,Group_JF,0,04cbb73480e16b0dd1318b3b32c0dbaefc83017771f404bf2042f67b6fa133cc,2001.7292289733887,True,keypress,bird_catchRsp,3138,['Bird singing'],choice-response,Bird singing,620ec2cd3f3e26074333ad10,songbird,5740,312,Catch_bird
pass,620ddeee49655b42f1242551,Group_JF,0,04cbb73480e16b0dd1318b3b32c0dbaefc83017771f404bf2042f67b6fa133cc,2001.7292289733887,False,keypress,testresponse_s_J,5925,['Shorter'],choice-response,Longer,620ec2cd3f3e26074333ad10,single_300ms_early_delay_2_tone_Lab_2,8817,313,maintaskTrials_2_s_rv
pass,620ddeee49655b42f1242551,Group_JF,0,04cbb73480e16b0dd1318b3b32c0dbaefc83017771f404bf2042f67b6fa133cc,2001.7292289733887,True,keypress,testresponse_l_F,8289,['Longer'],choice-response,Longer,620ec2cd3f3e26074333ad10,single_300ms_early_delay_2_tone_Lab_6,11307,314,maintaskTrials_2_l_rv
pass,620ddeee49655b42f1242551,Group_JF,0,04cbb73480e16b0dd1318b3b32c0dbaefc83017771f404bf2042f67b6fa133cc,2001.7292289733887,True,keypress,testresponse_l_F,1889,['Longer'],choice-response,Longer,620ec2cd3f3e26074333ad10,single_300ms_ontime_delay_2_tone_Lab_7,5065,315,maintaskTrials_2_l_rv
pass,620ddeee49655b42f1242551,Group_JF,0,04cbb73480e16b0dd1318b3b32c0dbaefc83017771f404bf2042f67b6fa133cc,2001.7292289733887,True,keypress,testresponse_l_F,1178,['Longer'],choice-response,Longer,620ec2cd3f3e26074333ad10,single_300ms_late_delay_2_tone_Lab_8,4375,316,maintaskTrials_2_l_rv
pass,620ddeee49655b42f1242551,Group_JF,0,04cbb73480e16b0dd1318b3b32c0dbaefc83017771f404bf2042f67b6fa133cc,2001.7292289733887,True,keypress,testresponse_s_J,905,['Shorter'],choice-response,Shorter,620ec2cd3f3e26074333ad10,single_300ms_late_delay_2_tone_Lab_1,3953,317,maintaskTrials_2_s_rv
pass,620ddeee49655b42f1242551,Group_JF,0,04cbb73480e16b0dd1318b3b32c0dbaefc83017771f404bf2042f67b6fa133cc,2001.7292289733887,True,keypress,testresponse_l_F,700,['Longer'],choice-response,Longer,620ec2cd3f3e26074333ad10,single_300ms_late_delay_2_tone_Lab_7,3867,318,maintaskTrials_2_l_rv
pass,620ddeee49655b42f1242551,Group_JF,0,04cbb73480e16b0dd1318b3b32c0dbaefc83017771f404bf2042f67b6fa133cc,2001.7292289733887,False,keypress,testresponse_s_J,647,['Shorter'],choice-response,Longer,620ec2cd3f3e26074333ad10,single_300ms_ontime_delay_2_tone_Lab_4,3661,319,maintaskTrials_2_s_rv
pass,620ddeee49655b42f1242551,Group_JF,0,04cbb73480e16b0dd1318b3b32c0dbaefc83017771f404bf2042f67b6fa133cc,2001.7292289733887,True,keypress,testresponse_l_F,482,['Longer'],choice-response,Longer,620ec2cd3f3e26074333ad10,single_300ms_early_delay_2_tone_Lab_7,3436,320,maintaskTrials_2_l_rv
pass,620ddeee49655b42f1242551,Group_JF,0,04cbb73480e16b0dd1318b3b32c0dbaefc83017771f404bf2042f67b6fa133cc,2001.7292289733887,True,keypress,testresponse_s_J,702,['Shorter'],choice-response,Shorter,620ec2cd3f3e26074333ad10,single_300ms_early_delay_2_tone_Lab_1,3607,321,maintaskTrials_2_s_rv
pass,620ddeee49655b42f1242551,Group_JF,0,04cbb73480e16b0dd1318b3b32c0dbaefc83017771f404bf2042f67b6fa133cc,2001.7292289733887,False,keypress,testresponse_s_J,725,['Shorter'],choice-response,Longer,620ec2cd3f3e26074333ad10,single_300ms_late_delay_2_tone_Lab_4,3839,322,maintaskTrials_2_s_rv
pass,620ddeee49655b42f1242551,Group_JF,0,04cbb73480e16b0dd1318b3b32c0dbaefc83017771f404bf2042f67b6fa133cc,2001.7292289733887,True,keypress,testresponse_l_F,940,['Longer'],choice-response,Longer,620ec2cd3f3e26074333ad10,single_300ms_ontime_delay_2_tone_Lab_6,3978,323,maintaskTrials_2_l_rv
pass,620ddeee49655b42f1242551,Group_JF,0,04cbb73480e16b0dd1318b3b32c0dbaefc83017771f404bf2042f67b6fa133cc,2001.7292289733887,True,keypress,bird_catchRsp,820,['Bird singing'],choice-response,Bird singing,620ec2cd3f3e26074333ad10,songbird,3475,324,Catch_bird
pass,620ddeee49655b42f1242551,Group_JF,0,04cbb73480e16b0dd1318b3b32c0dbaefc83017771f404bf2042f67b6fa133cc,2001.7292289733887,True,keypress,testresponse_s_J,655,['Shorter'],choice-response,Shorter,620ec2cd3f3e26074333ad10,single_300ms_early_delay_2_tone_Lab_3,3515,325,maintaskTrials_2_s_rv
pass,620ddeee49655b42f1242551,Group_JF,0,04cbb73480e16b0dd1318b3b32c0dbaefc83017771f404bf2042f67b6fa133cc,2001.7292289733887,True,keypress,testresponse_l_F,490,['Longer'],choice-response,Longer,620ec2cd3f3e26074333ad10,single_300ms_early_delay_2_tone_Lab_8,3496,326,maintaskTrials_2_l_rv
pass,620ddeee49655b42f1242551,Group_JF,0,04cbb73480e16b0dd1318b3b32c0dbaefc83017771f404bf2042f67b6fa133cc,2001.7292289733887,True,keypress,testresponse_l_F,972,['Longer'],choice-response,Longer,620ec2cd3f3e26074333ad10,single_300ms_early_delay_2_tone_Lab_5,4029,327,maintaskTrials_2_l_rv
pass,620ddeee49655b42f1242551,Group_JF,0,04cbb73480e16b0dd1318b3b32c0dbaefc83017771f404bf2042f67b6fa133cc,2001.7292289733887,True,keypress,testresponse_s_J,774,['Shorter'],choice-response,Shorter,620ec2cd3f3e26074333ad10,single_300ms_ontime_delay_2_tone_Lab_1,3778,328,maintaskTrials_2_s_rv
pass,620ddeee49655b42f1242551,Group_JF,0,04cbb73480e16b0dd1318b3b32c0dbaefc83017771f404bf2042f67b6fa133cc,2001.7292289733887,False,keypress,testresponse_s_J,381,['Shorter'],choice-response,Longer,620ec2cd3f3e26074333ad10,single_300ms_ontime_delay_2_tone_Lab_3,3362,329,maintaskTrials_2_s_rv
pass,620ddeee49655b42f1242551,Group_JF,0,04cbb73480e16b0dd1318b3b32c0dbaefc83017771f404bf2042f67b6fa133cc,2001.7292289733887,False,keypress,testresponse_l_F,428,['Longer'],choice-response,Shorter,620ec2cd3f3e26074333ad10,single_300ms_late_delay_2_tone_Lab_5,3552,330,maintaskTrials_2_l_rv
pass,620ddeee49655b42f1242551,Group_JF,0,04cbb73480e16b0dd1318b3b32c0dbaefc83017771f404bf2042f67b6fa133cc,2001.7292289733887,True,keypress,testresponse_s_J,439,['Shorter'],choice-response,Shorter,620ec2cd3f3e26074333ad10,single_300ms_late_delay_2_tone_Lab_1,3485,331,maintaskTrials_2_s_rv
pass,620ddeee49655b42f1242551,Group_JF,0,04cbb73480e16b0dd1318b3b32c0dbaefc83017771f404bf2042f67b6fa133cc,2001.7292289733887,True,keypress,testresponse_l_F,351,['Longer'],choice-response,Longer,620ec2cd3f3e26074333ad10,single_300ms_early_delay_2_tone_Lab_7,3336,332,maintaskTrials_2_l_rv
pass,620ddeee49655b42f1242551,Group_JF,0,04cbb73480e16b0dd1318b3b32c0dbaefc83017771f404bf2042f67b6fa133cc,2001.7292289733887,True,keypress,testresponse_l_F,376,['Longer'],choice-response,Longer,620ec2cd3f3e26074333ad10,single_300ms_late_delay_2_tone_Lab_7,3625,333,maintaskTrials_2_l_rv
pass,620ddeee49655b42f1242551,Group_JF,0,04cbb73480e16b0dd1318b3b32c0dbaefc83017771f404bf2042f67b6fa133cc,2001.7292289733887,True,keypress,testresponse_l_F,368,['Longer'],choice-response,Longer,620ec2cd3f3e26074333ad10,single_300ms_early_delay_2_tone_Lab_8,3366,334,maintaskTrials_2_l_rv
pass,620ddeee49655b42f1242551,Group_JF,0,04cbb73480e16b0dd1318b3b32c0dbaefc83017771f404bf2042f67b6fa133cc,2001.7292289733887,False,keypress,testresponse_l_F,1013,['Longer'],choice-response,Shorter,620ec2cd3f3e26074333ad10,single_300ms_early_delay_2_tone_Lab_5,3948,335,maintaskTrials_2_l_rv
pass,620ddeee49655b42f1242551,Group_JF,0,04cbb73480e16b0dd1318b3b32c0dbaefc83017771f404bf2042f67b6fa133cc,2001.7292289733887,True,keypress,bird_catchRsp,960,['Bird singing'],choice-response,Bird singing,620ec2cd3f3e26074333ad10,songbird,3565,336,Catch_bird
pass,620ddeee49655b42f1242551,Group_JF,0,04cbb73480e16b0dd1318b3b32c0dbaefc83017771f404bf2042f67b6fa133cc,2001.7292289733887,True,keypress,testresponse_s_J,1871,['Shorter'],choice-response,Shorter,620ec2cd3f3e26074333ad10,single_300ms_ontime_delay_2_tone_Lab_2,4831,337,maintaskTrials_2_s_rv
pass,620ddeee49655b42f1242551,Group_JF,0,04cbb73480e16b0dd1318b3b32c0dbaefc83017771f404bf2042f67b6fa133cc,2001.7292289733887,True,keypress,testresponse_l_F,822,['Longer'],choice-response,Longer,620ec2cd3f3e26074333ad10,single_300ms_late_delay_2_tone_Lab_5,3942,338,maintaskTrials_2_l_rv
pass,620ddeee49655b42f1242551,Group_JF,0,04cbb73480e16b0dd1318b3b32c0dbaefc83017771f404bf2042f67b6fa133cc,2001.7292289733887,True,keypress,testresponse_l_F,521,['Longer'],choice-response,Longer,620ec2cd3f3e26074333ad10,single_300ms_early_delay_2_tone_Lab_6,3469,339,maintaskTrials_2_l_rv
pass,620ddeee49655b42f1242551,Group_JF,0,04cbb73480e16b0dd1318b3b32c0dbaefc83017771f404bf2042f67b6fa133cc,2001.7292289733887,True,keypress,testresponse_s_J,632,['Shorter'],choice-response,Shorter,620ec2cd3f3e26074333ad10,single_300ms_early_delay_2_tone_Lab_1,3470,340,maintaskTrials_2_s_rv
pass,620ddeee49655b42f1242551,Group_JF,0,04cbb73480e16b0dd1318b3b32c0dbaefc83017771f404bf2042f67b6fa133cc,2001.7292289733887,True,keypress,testresponse_s_J,2595,['Shorter'],choice-response,Shorter,620ec2cd3f3e26074333ad10,single_300ms_ontime_delay_2_tone_Lab_3,5585,341,maintaskTrials_2_s_rv
pass,620ddeee49655b42f1242551,Group_JF,0,04cbb73480e16b0dd1318b3b32c0dbaefc83017771f404bf2042f67b6fa133cc,2001.7292289733887,True,keypress,testresponse_l_F,1086,['Longer'],choice-response,Longer,620ec2cd3f3e26074333ad10,single_300ms_late_delay_2_tone_Lab_8,4311,342,maintaskTrials_2_l_rv
pass,620ddeee49655b42f1242551,Group_JF,0,04cbb73480e16b0dd1318b3b32c0dbaefc83017771f404bf2042f67b6fa133cc,2001.7292289733887,True,keypress,testresponse_l_F,1045,['Longer'],choice-response,Longer,620ec2cd3f3e26074333ad10,single_300ms_ontime_delay_2_tone_Lab_7,4113,343,maintaskTrials_2_l_rv
pass,620ddeee49655b42f1242551,Group_JF,0,04cbb73480e16b0dd1318b3b32c0dbaefc83017771f404bf2042f67b6fa133cc,2001.7292289733887,False,keypress,testresponse_s_J,1636,['Shorter'],choice-response,Longer,620ec2cd3f3e26074333ad10,single_300ms_early_delay_2_tone_Lab_4,4669,344,maintaskTrials_2_s_rv
pass,620ddeee49655b42f1242551,Group_JF,0,04cbb73480e16b0dd1318b3b32c0dbaefc83017771f404bf2042f67b6fa133cc,2001.7292289733887,True,keypress,testresponse_l_F,711,['Longer'],choice-response,Longer,620ec2cd3f3e26074333ad10,single_300ms_ontime_delay_2_tone_Lab_6,3770,345,maintaskTrials_2_l_rv
pass,620ddeee49655b42f1242551,Group_JF,0,04cbb73480e16b0dd1318b3b32c0dbaefc83017771f404bf2042f67b6fa133cc,2001.7292289733887,False,keypress,testresponse_s_J,1325,['Shorter'],choice-response,Longer,620ec2cd3f3e26074333ad10,single_300ms_early_delay_2_tone_Lab_2,4311,346,maintaskTrials_2_s_rv
pass,620ddeee49655b42f1242551,Group_JF,0,04cbb73480e16b0dd1318b3b32c0dbaefc83017771f404bf2042f67b6fa133cc,2001.7292289733887,True,keypress,testresponse_l_F,1820,['Longer'],choice-response,Longer,620ec2cd3f3e26074333ad10,single_300ms_ontime_delay_2_tone_Lab_5,4845,347,maintaskTrials_2_l_rv
pass,620ddeee49655b42f1242551,Group_JF,0,04cbb73480e16b0dd1318b3b32c0dbaefc83017771f404bf2042f67b6fa133cc,2001.7292289733887,True,keypress,bird_catchRsp,1372,['Bird singing'],choice-response,Bird singing,620ec2cd3f3e26074333ad10,songbird,3971,348,Catch_bird
pass,620ddeee49655b42f1242551,Group_JF,0,04cbb73480e16b0dd1318b3b32c0dbaefc83017771f404bf2042f67b6fa133cc,2001.7292289733887,False,keypress,testresponse_s_J,1600,['Shorter'],choice-response,Longer,620ec2cd3f3e26074333ad10,single_300ms_late_delay_2_tone_Lab_2,4662,349,maintaskTrials_2_s_rv
pass,620ddeee49655b42f1242551,Group_JF,0,04cbb73480e16b0dd1318b3b32c0dbaefc83017771f404bf2042f67b6fa133cc,2001.7292289733887,True,keypress,testresponse_s_J,3800,['Shorter'],choice-response,Shorter,620ec2cd3f3e26074333ad10,single_300ms_late_delay_2_tone_Lab_3,6888,350,maintaskTrials_2_s_rv
pass,620ddeee49655b42f1242551,Group_JF,0,04cbb73480e16b0dd1318b3b32c0dbaefc83017771f404bf2042f67b6fa133cc,2001.7292289733887,True,keypress,testresponse_s_J,3193,['Shorter'],choice-response,Shorter,620ec2cd3f3e26074333ad10,single_300ms_early_delay_2_tone_Lab_3,6098,351,maintaskTrials_2_s_rv
pass,620ddeee49655b42f1242551,Group_JF,0,04cbb73480e16b0dd1318b3b32c0dbaefc83017771f404bf2042f67b6fa133cc,2001.7292289733887,False,keypress,testresponse_s_J,1365,['Shorter'],choice-response,Longer,620ec2cd3f3e26074333ad10,single_300ms_ontime_delay_2_tone_Lab_4,4357,352,maintaskTrials_2_s_rv
