expt_id,group_id,network_error_repeat,participant_id,participation_duration,response_correct,response_mode,response_name,response_rt,response_target,response_type,response_value,session_id,stimuli_presented,trial_duration,trial_num,trial_template
608073d7f5aa0f29e467168b,Group_FJ,0,56f876e6eea5aae750f1c8745f8ad6ce1d6433030fbd1b2a5249925c62907a59,2298.3637430667877,False,click,survey_noise,3376,[],choice-response,3,618efaee23d7c4bb8420b7c8,logistics_noise,5175,1,logisticsQuestionnaire
608073d7f5aa0f29e467168b,Group_FJ,0,56f876e6eea5aae750f1c8745f8ad6ce1d6433030fbd1b2a5249925c62907a59,2298.3637430667877,False,click,Rsp_YN,4083,[],choice-response,Yes,618efaee23d7c4bb8420b7c8,logistic_headphone1,5502,2,logisticsQuestionnaire
608073d7f5aa0f29e467168b,Group_FJ,0,56f876e6eea5aae750f1c8745f8ad6ce1d6433030fbd1b2a5249925c62907a59,2298.3637430667877,False,click,survey_headphone2,11139,[],choice-response,Wireless Earbuds,618efaee23d7c4bb8420b7c8,logistic_headphone2,12545,3,logisticsQuestionnaire
608073d7f5aa0f29e467168b,Group_FJ,0,56f876e6eea5aae750f1c8745f8ad6ce1d6433030fbd1b2a5249925c62907a59,2298.3637430667877,False,click,Rsp_YN,4610,[],choice-response,Yes,618efaee23d7c4bb8420b7c8,logistic_monoling_Eng,6720,4,logisticsQuestionnaire
608073d7f5aa0f29e467168b,Group_FJ,0,56f876e6eea5aae750f1c8745f8ad6ce1d6433030fbd1b2a5249925c62907a59,2298.3637430667877,False,keypress,testRsp,2502,[],choice-response,Pa,618efaee23d7c4bb8420b7c8,pa7,3457,5,DiscriminationTrials
608073d7f5aa0f29e467168b,Group_FJ,0,56f876e6eea5aae750f1c8745f8ad6ce1d6433030fbd1b2a5249925c62907a59,2298.3637430667877,False,keypress,testRsp,1221,[],choice-response,Pa,618efaee23d7c4bb8420b7c8,pa5,2329,6,DiscriminationTrials
608073d7f5aa0f29e467168b,Group_FJ,0,56f876e6eea5aae750f1c8745f8ad6ce1d6433030fbd1b2a5249925c62907a59,2298.3637430667877,False,keypress,testRsp,2167,[],choice-response,Pa,618efaee23d7c4bb8420b7c8,pa4,3142,7,DiscriminationTrials
608073d7f5aa0f29e467168b,Group_FJ,0,56f876e6eea5aae750f1c8745f8ad6ce1d6433030fbd1b2a5249925c62907a59,2298.3637430667877,False,keypress,testRsp,1774,[],choice-response,Pa,618efaee23d7c4bb8420b7c8,pa1,2759,8,DiscriminationTrials
608073d7f5aa0f29e467168b,Group_FJ,0,56f876e6eea5aae750f1c8745f8ad6ce1d6433030fbd1b2a5249925c62907a59,2298.3637430667877,False,keypress,testRsp,870,[],choice-response,Pa,618efaee23d7c4bb8420b7c8,pa2,1851,9,DiscriminationTrials
608073d7f5aa0f29e467168b,Group_FJ,0,56f876e6eea5aae750f1c8745f8ad6ce1d6433030fbd1b2a5249925c62907a59,2298.3637430667877,False,keypress,testRsp,490,[],choice-response,Ba,618efaee23d7c4bb8420b7c8,pa6,1467,10,DiscriminationTrials
608073d7f5aa0f29e467168b,Group_FJ,0,56f876e6eea5aae750f1c8745f8ad6ce1d6433030fbd1b2a5249925c62907a59,2298.3637430667877,False,keypress,testRsp,1430,[],choice-response,Pa,618efaee23d7c4bb8420b7c8,pa3,2395,11,DiscriminationTrials
608073d7f5aa0f29e467168b,Group_FJ,0,56f876e6eea5aae750f1c8745f8ad6ce1d6433030fbd1b2a5249925c62907a59,2298.3637430667877,False,keypress,testRsp,558,[],choice-response,Ba,618efaee23d7c4bb8420b7c8,pa8,1720,12,DiscriminationTrials
608073d7f5aa0f29e467168b,Group_FJ,0,56f876e6eea5aae750f1c8745f8ad6ce1d6433030fbd1b2a5249925c62907a59,2298.3637430667877,False,keypress,testRsp,229,[],choice-response,Pa,618efaee23d7c4bb8420b7c8,pa1,1064,13,DiscriminationTrials
608073d7f5aa0f29e467168b,Group_FJ,0,56f876e6eea5aae750f1c8745f8ad6ce1d6433030fbd1b2a5249925c62907a59,2298.3637430667877,False,keypress,testRsp,223,[],choice-response,Pa,618efaee23d7c4bb8420b7c8,pa2,1065,14,DiscriminationTrials
608073d7f5aa0f29e467168b,Group_FJ,0,56f876e6eea5aae750f1c8745f8ad6ce1d6433030fbd1b2a5249925c62907a59,2298.3637430667877,False,keypress,testRsp,374,[],choice-response,Ba,618efaee23d7c4bb8420b7c8,pa8,1182,15,DiscriminationTrials
608073d7f5aa0f29e467168b,Group_FJ,0,56f876e6eea5aae750f1c8745f8ad6ce1d6433030fbd1b2a5249925c62907a59,2298.3637430667877,False,keypress,testRsp,677,[],choice-response,Pa,618efaee23d7c4bb8420b7c8,pa4,1520,16,DiscriminationTrials
608073d7f5aa0f29e467168b,Group_FJ,0,56f876e6eea5aae750f1c8745f8ad6ce1d6433030fbd1b2a5249925c62907a59,2298.3637430667877,False,keypress,testRsp,1026,[],choice-response,Pa,618efaee23d7c4bb8420b7c8,pa6,1836,17,DiscriminationTrials
608073d7f5aa0f29e467168b,Group_FJ,0,56f876e6eea5aae750f1c8745f8ad6ce1d6433030fbd1b2a5249925c62907a59,2298.3637430667877,False,keypress,testRsp,504,[],choice-response,Pa,618efaee23d7c4bb8420b7c8,pa3,1354,18,DiscriminationTrials
608073d7f5aa0f29e467168b,Group_FJ,0,56f876e6eea5aae750f1c8745f8ad6ce1d6433030fbd1b2a5249925c62907a59,2298.3637430667877,False,keypress,testRsp,166,[],choice-response,Ba,618efaee23d7c4bb8420b7c8,pa7,991,19,DiscriminationTrials
608073d7f5aa0f29e467168b,Group_FJ,0,56f876e6eea5aae750f1c8745f8ad6ce1d6433030fbd1b2a5249925c62907a59,2298.3637430667877,False,keypress,testRsp,406,[],choice-response,Ba,618efaee23d7c4bb8420b7c8,pa5,1213,20,DiscriminationTrials
608073d7f5aa0f29e467168b,Group_FJ,0,56f876e6eea5aae750f1c8745f8ad6ce1d6433030fbd1b2a5249925c62907a59,2298.3637430667877,False,keypress,testRsp,451,[],choice-response,Ba,618efaee23d7c4bb8420b7c8,pa6,1256,21,DiscriminationTrials
608073d7f5aa0f29e467168b,Group_FJ,0,56f876e6eea5aae750f1c8745f8ad6ce1d6433030fbd1b2a5249925c62907a59,2298.3637430667877,False,keypress,testRsp,298,[],choice-response,Pa,618efaee23d7c4bb8420b7c8,pa1,1121,22,DiscriminationTrials
608073d7f5aa0f29e467168b,Group_FJ,0,56f876e6eea5aae750f1c8745f8ad6ce1d6433030fbd1b2a5249925c62907a59,2298.3637430667877,False,keypress,testRsp,382,[],choice-response,Pa,618efaee23d7c4bb8420b7c8,pa4,1218,23,DiscriminationTrials
608073d7f5aa0f29e467168b,Group_FJ,0,56f876e6eea5aae750f1c8745f8ad6ce1d6433030fbd1b2a5249925c62907a59,2298.3637430667877,False,keypress,testRsp,183,[],choice-response,Ba,618efaee23d7c4bb8420b7c8,pa8,1191,24,DiscriminationTrials
608073d7f5aa0f29e467168b,Group_FJ,0,56f876e6eea5aae750f1c8745f8ad6ce1d6433030fbd1b2a5249925c62907a59,2298.3637430667877,False,keypress,testRsp,360,[],choice-response,Pa,618efaee23d7c4bb8420b7c8,pa2,1334,25,DiscriminationTrials
608073d7f5aa0f29e467168b,Group_FJ,0,56f876e6eea5aae750f1c8745f8ad6ce1d6433030fbd1b2a5249925c62907a59,2298.3637430667877,False,keypress,testRsp,223,[],choice-response,Ba,618efaee23d7c4bb8420b7c8,pa7,1169,26,DiscriminationTrials
608073d7f5aa0f29e467168b,Group_FJ,0,56f876e6eea5aae750f1c8745f8ad6ce1d6433030fbd1b2a5249925c62907a59,2298.3637430667877,False,keypress,testRsp,452,[],choice-response,Pa,618efaee23d7c4bb8420b7c8,pa3,1424,27,DiscriminationTrials
608073d7f5aa0f29e467168b,Group_FJ,0,56f876e6eea5aae750f1c8745f8ad6ce1d6433030fbd1b2a5249925c62907a59,2298.3637430667877,False,keypress,testRsp,283,[],choice-response,Pa,618efaee23d7c4bb8420b7c8,pa5,1314,28,DiscriminationTrials
608073d7f5aa0f29e467168b,Group_FJ,0,56f876e6eea5aae750f1c8745f8ad6ce1d6433030fbd1b2a5249925c62907a59,2298.3637430667877,False,keypress,testRsp,272,[],choice-response,Ba,618efaee23d7c4bb8420b7c8,pa8,1080,29,DiscriminationTrials
608073d7f5aa0f29e467168b,Group_FJ,0,56f876e6eea5aae750f1c8745f8ad6ce1d6433030fbd1b2a5249925c62907a59,2298.3637430667877,False,keypress,testRsp,170,[],choice-response,Pa,618efaee23d7c4bb8420b7c8,pa4,1146,30,DiscriminationTrials
608073d7f5aa0f29e467168b,Group_FJ,0,56f876e6eea5aae750f1c8745f8ad6ce1d6433030fbd1b2a5249925c62907a59,2298.3637430667877,False,keypress,testRsp,354,[],choice-response,Pa,618efaee23d7c4bb8420b7c8,pa3,1180,31,DiscriminationTrials
608073d7f5aa0f29e467168b,Group_FJ,0,56f876e6eea5aae750f1c8745f8ad6ce1d6433030fbd1b2a5249925c62907a59,2298.3637430667877,False,keypress,testRsp,364,[],choice-response,Pa,618efaee23d7c4bb8420b7c8,pa1,1345,32,DiscriminationTrials
608073d7f5aa0f29e467168b,Group_FJ,0,56f876e6eea5aae750f1c8745f8ad6ce1d6433030fbd1b2a5249925c62907a59,2298.3637430667877,False,keypress,testRsp,629,[],choice-response,Ba,618efaee23d7c4bb8420b7c8,pa7,1450,33,DiscriminationTrials
608073d7f5aa0f29e467168b,Group_FJ,0,56f876e6eea5aae750f1c8745f8ad6ce1d6433030fbd1b2a5249925c62907a59,2298.3637430667877,False,keypress,testRsp,223,[],choice-response,Pa,618efaee23d7c4bb8420b7c8,pa2,1049,34,DiscriminationTrials
608073d7f5aa0f29e467168b,Group_FJ,0,56f876e6eea5aae750f1c8745f8ad6ce1d6433030fbd1b2a5249925c62907a59,2298.3637430667877,False,keypress,testRsp,304,[],choice-response,Ba,618efaee23d7c4bb8420b7c8,pa5,1112,35,DiscriminationTrials
608073d7f5aa0f29e467168b,Group_FJ,0,56f876e6eea5aae750f1c8745f8ad6ce1d6433030fbd1b2a5249925c62907a59,2298.3637430667877,False,keypress,testRsp,204,[],choice-response,Pa,618efaee23d7c4bb8420b7c8,pa6,1196,36,DiscriminationTrials
608073d7f5aa0f29e467168b,Group_FJ,0,56f876e6eea5aae750f1c8745f8ad6ce1d6433030fbd1b2a5249925c62907a59,2298.3637430667877,False,keypress,testRsp,142,[],choice-response,Pa,618efaee23d7c4bb8420b7c8,pa1,970,37,DiscriminationTrials
608073d7f5aa0f29e467168b,Group_FJ,0,56f876e6eea5aae750f1c8745f8ad6ce1d6433030fbd1b2a5249925c62907a59,2298.3637430667877,False,keypress,testRsp,246,[],choice-response,Pa,618efaee23d7c4bb8420b7c8,pa3,1075,38,DiscriminationTrials
608073d7f5aa0f29e467168b,Group_FJ,0,56f876e6eea5aae750f1c8745f8ad6ce1d6433030fbd1b2a5249925c62907a59,2298.3637430667877,False,keypress,testRsp,262,[],choice-response,Ba,618efaee23d7c4bb8420b7c8,pa8,1065,39,DiscriminationTrials
608073d7f5aa0f29e467168b,Group_FJ,0,56f876e6eea5aae750f1c8745f8ad6ce1d6433030fbd1b2a5249925c62907a59,2298.3637430667877,False,keypress,testRsp,542,[],choice-response,Pa,618efaee23d7c4bb8420b7c8,pa4,1377,40,DiscriminationTrials
608073d7f5aa0f29e467168b,Group_FJ,0,56f876e6eea5aae750f1c8745f8ad6ce1d6433030fbd1b2a5249925c62907a59,2298.3637430667877,False,keypress,testRsp,252,[],choice-response,Ba,618efaee23d7c4bb8420b7c8,pa7,1056,41,DiscriminationTrials
608073d7f5aa0f29e467168b,Group_FJ,0,56f876e6eea5aae750f1c8745f8ad6ce1d6433030fbd1b2a5249925c62907a59,2298.3637430667877,False,keypress,testRsp,865,[],choice-response,Ba,618efaee23d7c4bb8420b7c8,pa6,1673,42,DiscriminationTrials
608073d7f5aa0f29e467168b,Group_FJ,0,56f876e6eea5aae750f1c8745f8ad6ce1d6433030fbd1b2a5249925c62907a59,2298.3637430667877,False,keypress,testRsp,482,[],choice-response,Pa,618efaee23d7c4bb8420b7c8,pa2,1307,43,DiscriminationTrials
608073d7f5aa0f29e467168b,Group_FJ,0,56f876e6eea5aae750f1c8745f8ad6ce1d6433030fbd1b2a5249925c62907a59,2298.3637430667877,False,keypress,testRsp,195,[],choice-response,Ba,618efaee23d7c4bb8420b7c8,pa5,1007,44,DiscriminationTrials
608073d7f5aa0f29e467168b,Group_FJ,0,56f876e6eea5aae750f1c8745f8ad6ce1d6433030fbd1b2a5249925c62907a59,2298.3637430667877,False,keypress,testRsp,1024,[],choice-response,Pa,618efaee23d7c4bb8420b7c8,pa6,1842,45,DiscriminationTrials
608073d7f5aa0f29e467168b,Group_FJ,0,56f876e6eea5aae750f1c8745f8ad6ce1d6433030fbd1b2a5249925c62907a59,2298.3637430667877,False,keypress,testRsp,482,[],choice-response,Ba,618efaee23d7c4bb8420b7c8,pa8,1309,46,DiscriminationTrials
608073d7f5aa0f29e467168b,Group_FJ,0,56f876e6eea5aae750f1c8745f8ad6ce1d6433030fbd1b2a5249925c62907a59,2298.3637430667877,False,keypress,testRsp,315,[],choice-response,Pa,618efaee23d7c4bb8420b7c8,pa5,1125,47,DiscriminationTrials
608073d7f5aa0f29e467168b,Group_FJ,0,56f876e6eea5aae750f1c8745f8ad6ce1d6433030fbd1b2a5249925c62907a59,2298.3637430667877,False,keypress,testRsp,2111,[],choice-response,Pa,618efaee23d7c4bb8420b7c8,pa4,3073,48,DiscriminationTrials
608073d7f5aa0f29e467168b,Group_FJ,0,56f876e6eea5aae750f1c8745f8ad6ce1d6433030fbd1b2a5249925c62907a59,2298.3637430667877,False,keypress,testRsp,382,[],choice-response,Pa,618efaee23d7c4bb8420b7c8,pa2,1360,49,DiscriminationTrials
608073d7f5aa0f29e467168b,Group_FJ,0,56f876e6eea5aae750f1c8745f8ad6ce1d6433030fbd1b2a5249925c62907a59,2298.3637430667877,False,keypress,testRsp,498,[],choice-response,Pa,618efaee23d7c4bb8420b7c8,pa7,1610,50,DiscriminationTrials
608073d7f5aa0f29e467168b,Group_FJ,0,56f876e6eea5aae750f1c8745f8ad6ce1d6433030fbd1b2a5249925c62907a59,2298.3637430667877,False,keypress,testRsp,843,[],choice-response,Pa,618efaee23d7c4bb8420b7c8,pa3,1801,51,DiscriminationTrials
608073d7f5aa0f29e467168b,Group_FJ,0,56f876e6eea5aae750f1c8745f8ad6ce1d6433030fbd1b2a5249925c62907a59,2298.3637430667877,False,keypress,testRsp,256,[],choice-response,Pa,618efaee23d7c4bb8420b7c8,pa1,1266,52,DiscriminationTrials
608073d7f5aa0f29e467168b,Group_FJ,0,56f876e6eea5aae750f1c8745f8ad6ce1d6433030fbd1b2a5249925c62907a59,2298.3637430667877,False,keypress,testRsp,156,[],choice-response,Ba,618efaee23d7c4bb8420b7c8,pa8,1107,53,DiscriminationTrials
608073d7f5aa0f29e467168b,Group_FJ,0,56f876e6eea5aae750f1c8745f8ad6ce1d6433030fbd1b2a5249925c62907a59,2298.3637430667877,False,keypress,testRsp,307,[],choice-response,Ba,618efaee23d7c4bb8420b7c8,pa7,1124,54,DiscriminationTrials
608073d7f5aa0f29e467168b,Group_FJ,0,56f876e6eea5aae750f1c8745f8ad6ce1d6433030fbd1b2a5249925c62907a59,2298.3637430667877,False,keypress,testRsp,376,[],choice-response,Ba,618efaee23d7c4bb8420b7c8,pa6,1320,55,DiscriminationTrials
608073d7f5aa0f29e467168b,Group_FJ,0,56f876e6eea5aae750f1c8745f8ad6ce1d6433030fbd1b2a5249925c62907a59,2298.3637430667877,False,keypress,testRsp,513,[],choice-response,Pa,618efaee23d7c4bb8420b7c8,pa3,1355,56,DiscriminationTrials
608073d7f5aa0f29e467168b,Group_FJ,0,56f876e6eea5aae750f1c8745f8ad6ce1d6433030fbd1b2a5249925c62907a59,2298.3637430667877,False,keypress,testRsp,160,[],choice-response,Pa,618efaee23d7c4bb8420b7c8,pa2,999,57,DiscriminationTrials
608073d7f5aa0f29e467168b,Group_FJ,0,56f876e6eea5aae750f1c8745f8ad6ce1d6433030fbd1b2a5249925c62907a59,2298.3637430667877,False,keypress,testRsp,163,[],choice-response,Pa,618efaee23d7c4bb8420b7c8,pa5,977,58,DiscriminationTrials
608073d7f5aa0f29e467168b,Group_FJ,0,56f876e6eea5aae750f1c8745f8ad6ce1d6433030fbd1b2a5249925c62907a59,2298.3637430667877,False,keypress,testRsp,281,[],choice-response,Pa,618efaee23d7c4bb8420b7c8,pa1,1113,59,DiscriminationTrials
608073d7f5aa0f29e467168b,Group_FJ,0,56f876e6eea5aae750f1c8745f8ad6ce1d6433030fbd1b2a5249925c62907a59,2298.3637430667877,False,keypress,testRsp,164,[],choice-response,Pa,618efaee23d7c4bb8420b7c8,pa4,996,60,DiscriminationTrials
608073d7f5aa0f29e467168b,Group_FJ,0,56f876e6eea5aae750f1c8745f8ad6ce1d6433030fbd1b2a5249925c62907a59,2298.3637430667877,False,keypress,testRsp,181,[],choice-response,Pa,618efaee23d7c4bb8420b7c8,pa5,989,61,DiscriminationTrials
608073d7f5aa0f29e467168b,Group_FJ,0,56f876e6eea5aae750f1c8745f8ad6ce1d6433030fbd1b2a5249925c62907a59,2298.3637430667877,False,keypress,testRsp,140,[],choice-response,Pa,618efaee23d7c4bb8420b7c8,pa1,970,62,DiscriminationTrials
608073d7f5aa0f29e467168b,Group_FJ,0,56f876e6eea5aae750f1c8745f8ad6ce1d6433030fbd1b2a5249925c62907a59,2298.3637430667877,False,keypress,testRsp,721,[],choice-response,Ba,618efaee23d7c4bb8420b7c8,pa7,1534,63,DiscriminationTrials
608073d7f5aa0f29e467168b,Group_FJ,0,56f876e6eea5aae750f1c8745f8ad6ce1d6433030fbd1b2a5249925c62907a59,2298.3637430667877,False,keypress,testRsp,546,[],choice-response,Pa,618efaee23d7c4bb8420b7c8,pa3,1376,64,DiscriminationTrials
608073d7f5aa0f29e467168b,Group_FJ,0,56f876e6eea5aae750f1c8745f8ad6ce1d6433030fbd1b2a5249925c62907a59,2298.3637430667877,False,keypress,testRsp,882,[],choice-response,Pa,618efaee23d7c4bb8420b7c8,pa4,1710,65,DiscriminationTrials
608073d7f5aa0f29e467168b,Group_FJ,0,56f876e6eea5aae750f1c8745f8ad6ce1d6433030fbd1b2a5249925c62907a59,2298.3637430667877,False,keypress,testRsp,302,[],choice-response,Ba,618efaee23d7c4bb8420b7c8,pa6,1130,66,DiscriminationTrials
608073d7f5aa0f29e467168b,Group_FJ,0,56f876e6eea5aae750f1c8745f8ad6ce1d6433030fbd1b2a5249925c62907a59,2298.3637430667877,False,keypress,testRsp,285,[],choice-response,Pa,618efaee23d7c4bb8420b7c8,pa2,1114,67,DiscriminationTrials
608073d7f5aa0f29e467168b,Group_FJ,0,56f876e6eea5aae750f1c8745f8ad6ce1d6433030fbd1b2a5249925c62907a59,2298.3637430667877,False,keypress,testRsp,172,[],choice-response,Ba,618efaee23d7c4bb8420b7c8,pa8,977,68,DiscriminationTrials
608073d7f5aa0f29e467168b,Group_FJ,0,56f876e6eea5aae750f1c8745f8ad6ce1d6433030fbd1b2a5249925c62907a59,2298.3637430667877,False,keypress,testRsp,347,[],choice-response,Pa,618efaee23d7c4bb8420b7c8,pa3,1168,69,DiscriminationTrials
608073d7f5aa0f29e467168b,Group_FJ,0,56f876e6eea5aae750f1c8745f8ad6ce1d6433030fbd1b2a5249925c62907a59,2298.3637430667877,False,keypress,testRsp,156,[],choice-response,Ba,618efaee23d7c4bb8420b7c8,pa8,962,70,DiscriminationTrials
608073d7f5aa0f29e467168b,Group_FJ,0,56f876e6eea5aae750f1c8745f8ad6ce1d6433030fbd1b2a5249925c62907a59,2298.3637430667877,False,keypress,testRsp,320,[],choice-response,Pa,618efaee23d7c4bb8420b7c8,pa1,1301,71,DiscriminationTrials
608073d7f5aa0f29e467168b,Group_FJ,0,56f876e6eea5aae750f1c8745f8ad6ce1d6433030fbd1b2a5249925c62907a59,2298.3637430667877,False,keypress,testRsp,281,[],choice-response,Pa,618efaee23d7c4bb8420b7c8,pa5,1351,72,DiscriminationTrials
608073d7f5aa0f29e467168b,Group_FJ,0,56f876e6eea5aae750f1c8745f8ad6ce1d6433030fbd1b2a5249925c62907a59,2298.3637430667877,False,keypress,testRsp,164,[],choice-response,Pa,618efaee23d7c4bb8420b7c8,pa6,1134,73,DiscriminationTrials
608073d7f5aa0f29e467168b,Group_FJ,0,56f876e6eea5aae750f1c8745f8ad6ce1d6433030fbd1b2a5249925c62907a59,2298.3637430667877,False,keypress,testRsp,127,[],choice-response,Ba,618efaee23d7c4bb8420b7c8,pa7,1118,74,DiscriminationTrials
608073d7f5aa0f29e467168b,Group_FJ,0,56f876e6eea5aae750f1c8745f8ad6ce1d6433030fbd1b2a5249925c62907a59,2298.3637430667877,False,keypress,testRsp,128,[],choice-response,Pa,618efaee23d7c4bb8420b7c8,pa2,1092,75,DiscriminationTrials
608073d7f5aa0f29e467168b,Group_FJ,0,56f876e6eea5aae750f1c8745f8ad6ce1d6433030fbd1b2a5249925c62907a59,2298.3637430667877,False,keypress,testRsp,169,[],choice-response,Pa,618efaee23d7c4bb8420b7c8,pa4,1222,76,DiscriminationTrials
608073d7f5aa0f29e467168b,Group_FJ,0,56f876e6eea5aae750f1c8745f8ad6ce1d6433030fbd1b2a5249925c62907a59,2298.3637430667877,False,keypress,testRsp,377,[],choice-response,Pa,618efaee23d7c4bb8420b7c8,pa2,1214,77,DiscriminationTrials
608073d7f5aa0f29e467168b,Group_FJ,0,56f876e6eea5aae750f1c8745f8ad6ce1d6433030fbd1b2a5249925c62907a59,2298.3637430667877,False,keypress,testRsp,267,[],choice-response,Pa,618efaee23d7c4bb8420b7c8,pa1,1103,78,DiscriminationTrials
608073d7f5aa0f29e467168b,Group_FJ,0,56f876e6eea5aae750f1c8745f8ad6ce1d6433030fbd1b2a5249925c62907a59,2298.3637430667877,False,keypress,testRsp,251,[],choice-response,Ba,618efaee23d7c4bb8420b7c8,pa6,1055,79,DiscriminationTrials
608073d7f5aa0f29e467168b,Group_FJ,0,56f876e6eea5aae750f1c8745f8ad6ce1d6433030fbd1b2a5249925c62907a59,2298.3637430667877,False,keypress,testRsp,399,[],choice-response,Ba,618efaee23d7c4bb8420b7c8,pa7,1201,80,DiscriminationTrials
608073d7f5aa0f29e467168b,Group_FJ,0,56f876e6eea5aae750f1c8745f8ad6ce1d6433030fbd1b2a5249925c62907a59,2298.3637430667877,False,keypress,testRsp,789,[],choice-response,Pa,618efaee23d7c4bb8420b7c8,pa4,1625,81,DiscriminationTrials
608073d7f5aa0f29e467168b,Group_FJ,0,56f876e6eea5aae750f1c8745f8ad6ce1d6433030fbd1b2a5249925c62907a59,2298.3637430667877,False,keypress,testRsp,165,[],choice-response,Ba,618efaee23d7c4bb8420b7c8,pa8,965,82,DiscriminationTrials
608073d7f5aa0f29e467168b,Group_FJ,0,56f876e6eea5aae750f1c8745f8ad6ce1d6433030fbd1b2a5249925c62907a59,2298.3637430667877,False,keypress,testRsp,257,[],choice-response,Pa,618efaee23d7c4bb8420b7c8,pa5,1063,83,DiscriminationTrials
608073d7f5aa0f29e467168b,Group_FJ,0,56f876e6eea5aae750f1c8745f8ad6ce1d6433030fbd1b2a5249925c62907a59,2298.3637430667877,False,keypress,testRsp,348,[],choice-response,Pa,618efaee23d7c4bb8420b7c8,pa3,1485,84,DiscriminationTrials
608073d7f5aa0f29e467168b,Group_FJ,0,56f876e6eea5aae750f1c8745f8ad6ce1d6433030fbd1b2a5249925c62907a59,2298.3637430667877,False,keypress,testRsp,150,[],choice-response,Pa,618efaee23d7c4bb8420b7c8,pa1,974,85,DiscriminationTrials
608073d7f5aa0f29e467168b,Group_FJ,0,56f876e6eea5aae750f1c8745f8ad6ce1d6433030fbd1b2a5249925c62907a59,2298.3637430667877,False,keypress,testRsp,182,[],choice-response,Pa,618efaee23d7c4bb8420b7c8,pa3,1022,86,DiscriminationTrials
608073d7f5aa0f29e467168b,Group_FJ,0,56f876e6eea5aae750f1c8745f8ad6ce1d6433030fbd1b2a5249925c62907a59,2298.3637430667877,False,keypress,testRsp,175,[],choice-response,Ba,618efaee23d7c4bb8420b7c8,pa8,980,87,DiscriminationTrials
608073d7f5aa0f29e467168b,Group_FJ,0,56f876e6eea5aae750f1c8745f8ad6ce1d6433030fbd1b2a5249925c62907a59,2298.3637430667877,False,keypress,testRsp,642,[],choice-response,Ba,618efaee23d7c4bb8420b7c8,pa4,1483,88,DiscriminationTrials
608073d7f5aa0f29e467168b,Group_FJ,0,56f876e6eea5aae750f1c8745f8ad6ce1d6433030fbd1b2a5249925c62907a59,2298.3637430667877,False,keypress,testRsp,392,[],choice-response,Pa,618efaee23d7c4bb8420b7c8,pa2,1220,89,DiscriminationTrials
608073d7f5aa0f29e467168b,Group_FJ,0,56f876e6eea5aae750f1c8745f8ad6ce1d6433030fbd1b2a5249925c62907a59,2298.3637430667877,False,keypress,testRsp,248,[],choice-response,Ba,618efaee23d7c4bb8420b7c8,pa6,1067,90,DiscriminationTrials
608073d7f5aa0f29e467168b,Group_FJ,0,56f876e6eea5aae750f1c8745f8ad6ce1d6433030fbd1b2a5249925c62907a59,2298.3637430667877,False,keypress,testRsp,1003,[],choice-response,Ba,618efaee23d7c4bb8420b7c8,pa7,1807,91,DiscriminationTrials
608073d7f5aa0f29e467168b,Group_FJ,0,56f876e6eea5aae750f1c8745f8ad6ce1d6433030fbd1b2a5249925c62907a59,2298.3637430667877,False,keypress,testRsp,292,[],choice-response,Ba,618efaee23d7c4bb8420b7c8,pa5,1102,92,DiscriminationTrials
608073d7f5aa0f29e467168b,Group_FJ,0,56f876e6eea5aae750f1c8745f8ad6ce1d6433030fbd1b2a5249925c62907a59,2298.3637430667877,False,keypress,testRsp,1017,[],choice-response,Ba,618efaee23d7c4bb8420b7c8,pa5,1840,93,DiscriminationTrials
608073d7f5aa0f29e467168b,Group_FJ,0,56f876e6eea5aae750f1c8745f8ad6ce1d6433030fbd1b2a5249925c62907a59,2298.3637430667877,False,keypress,testRsp,332,[],choice-response,Pa,618efaee23d7c4bb8420b7c8,pa1,1501,94,DiscriminationTrials
608073d7f5aa0f29e467168b,Group_FJ,0,56f876e6eea5aae750f1c8745f8ad6ce1d6433030fbd1b2a5249925c62907a59,2298.3637430667877,False,keypress,testRsp,180,[],choice-response,Ba,618efaee23d7c4bb8420b7c8,pa8,1196,95,DiscriminationTrials
608073d7f5aa0f29e467168b,Group_FJ,0,56f876e6eea5aae750f1c8745f8ad6ce1d6433030fbd1b2a5249925c62907a59,2298.3637430667877,False,keypress,testRsp,727,[],choice-response,Ba,618efaee23d7c4bb8420b7c8,pa6,1679,96,DiscriminationTrials
608073d7f5aa0f29e467168b,Group_FJ,0,56f876e6eea5aae750f1c8745f8ad6ce1d6433030fbd1b2a5249925c62907a59,2298.3637430667877,False,keypress,testRsp,406,[],choice-response,Pa,618efaee23d7c4bb8420b7c8,pa4,1453,97,DiscriminationTrials
608073d7f5aa0f29e467168b,Group_FJ,0,56f876e6eea5aae750f1c8745f8ad6ce1d6433030fbd1b2a5249925c62907a59,2298.3637430667877,False,keypress,testRsp,407,[],choice-response,Pa,618efaee23d7c4bb8420b7c8,pa2,1434,98,DiscriminationTrials
608073d7f5aa0f29e467168b,Group_FJ,0,56f876e6eea5aae750f1c8745f8ad6ce1d6433030fbd1b2a5249925c62907a59,2298.3637430667877,False,keypress,testRsp,545,[],choice-response,Ba,618efaee23d7c4bb8420b7c8,pa7,1510,99,DiscriminationTrials
608073d7f5aa0f29e467168b,Group_FJ,0,56f876e6eea5aae750f1c8745f8ad6ce1d6433030fbd1b2a5249925c62907a59,2298.3637430667877,False,keypress,testRsp,339,[],choice-response,Pa,618efaee23d7c4bb8420b7c8,pa3,1307,100,DiscriminationTrials
608073d7f5aa0f29e467168b,Group_FJ,0,56f876e6eea5aae750f1c8745f8ad6ce1d6433030fbd1b2a5249925c62907a59,2298.3637430667877,False,keypress,testRsp,246,[],choice-response,Ba,618efaee23d7c4bb8420b7c8,pa8,1056,101,DiscriminationTrials
608073d7f5aa0f29e467168b,Group_FJ,0,56f876e6eea5aae750f1c8745f8ad6ce1d6433030fbd1b2a5249925c62907a59,2298.3637430667877,False,keypress,testRsp,710,[],choice-response,Pa,618efaee23d7c4bb8420b7c8,pa4,1540,102,DiscriminationTrials
608073d7f5aa0f29e467168b,Group_FJ,0,56f876e6eea5aae750f1c8745f8ad6ce1d6433030fbd1b2a5249925c62907a59,2298.3637430667877,False,keypress,testRsp,235,[],choice-response,Pa,618efaee23d7c4bb8420b7c8,pa3,1075,103,DiscriminationTrials
608073d7f5aa0f29e467168b,Group_FJ,0,56f876e6eea5aae750f1c8745f8ad6ce1d6433030fbd1b2a5249925c62907a59,2298.3637430667877,False,keypress,testRsp,213,[],choice-response,Pa,618efaee23d7c4bb8420b7c8,pa5,1031,104,DiscriminationTrials
608073d7f5aa0f29e467168b,Group_FJ,0,56f876e6eea5aae750f1c8745f8ad6ce1d6433030fbd1b2a5249925c62907a59,2298.3637430667877,False,keypress,testRsp,465,[],choice-response,Pa,618efaee23d7c4bb8420b7c8,pa6,1266,105,DiscriminationTrials
608073d7f5aa0f29e467168b,Group_FJ,0,56f876e6eea5aae750f1c8745f8ad6ce1d6433030fbd1b2a5249925c62907a59,2298.3637430667877,False,keypress,testRsp,740,[],choice-response,Pa,618efaee23d7c4bb8420b7c8,pa2,1569,106,DiscriminationTrials
608073d7f5aa0f29e467168b,Group_FJ,0,56f876e6eea5aae750f1c8745f8ad6ce1d6433030fbd1b2a5249925c62907a59,2298.3637430667877,False,keypress,testRsp,252,[],choice-response,Ba,618efaee23d7c4bb8420b7c8,pa7,1066,107,DiscriminationTrials
608073d7f5aa0f29e467168b,Group_FJ,0,56f876e6eea5aae750f1c8745f8ad6ce1d6433030fbd1b2a5249925c62907a59,2298.3637430667877,False,keypress,testRsp,120,[],choice-response,Pa,618efaee23d7c4bb8420b7c8,pa1,959,108,DiscriminationTrials
608073d7f5aa0f29e467168b,Group_FJ,0,56f876e6eea5aae750f1c8745f8ad6ce1d6433030fbd1b2a5249925c62907a59,2298.3637430667877,False,keypress,testRsp,71,[],choice-response,Pa,618efaee23d7c4bb8420b7c8,pa1,904,109,DiscriminationTrials
608073d7f5aa0f29e467168b,Group_FJ,0,56f876e6eea5aae750f1c8745f8ad6ce1d6433030fbd1b2a5249925c62907a59,2298.3637430667877,False,keypress,testRsp,89,[],choice-response,Pa,618efaee23d7c4bb8420b7c8,pa2,930,110,DiscriminationTrials
608073d7f5aa0f29e467168b,Group_FJ,0,56f876e6eea5aae750f1c8745f8ad6ce1d6433030fbd1b2a5249925c62907a59,2298.3637430667877,False,keypress,testRsp,74,[],choice-response,Pa,618efaee23d7c4bb8420b7c8,pa6,894,111,DiscriminationTrials
608073d7f5aa0f29e467168b,Group_FJ,0,56f876e6eea5aae750f1c8745f8ad6ce1d6433030fbd1b2a5249925c62907a59,2298.3637430667877,False,keypress,testRsp,333,[],choice-response,Pa,618efaee23d7c4bb8420b7c8,pa4,1171,112,DiscriminationTrials
608073d7f5aa0f29e467168b,Group_FJ,0,56f876e6eea5aae750f1c8745f8ad6ce1d6433030fbd1b2a5249925c62907a59,2298.3637430667877,False,keypress,testRsp,156,[],choice-response,Pa,618efaee23d7c4bb8420b7c8,pa3,998,113,DiscriminationTrials
608073d7f5aa0f29e467168b,Group_FJ,0,56f876e6eea5aae750f1c8745f8ad6ce1d6433030fbd1b2a5249925c62907a59,2298.3637430667877,False,keypress,testRsp,409,[],choice-response,Ba,618efaee23d7c4bb8420b7c8,pa7,1224,114,DiscriminationTrials
608073d7f5aa0f29e467168b,Group_FJ,0,56f876e6eea5aae750f1c8745f8ad6ce1d6433030fbd1b2a5249925c62907a59,2298.3637430667877,False,keypress,testRsp,301,[],choice-response,Pa,618efaee23d7c4bb8420b7c8,pa5,1106,115,DiscriminationTrials
608073d7f5aa0f29e467168b,Group_FJ,0,56f876e6eea5aae750f1c8745f8ad6ce1d6433030fbd1b2a5249925c62907a59,2298.3637430667877,False,keypress,testRsp,196,[],choice-response,Ba,618efaee23d7c4bb8420b7c8,pa8,1004,116,DiscriminationTrials
608073d7f5aa0f29e467168b,Group_FJ,0,56f876e6eea5aae750f1c8745f8ad6ce1d6433030fbd1b2a5249925c62907a59,2298.3637430667877,False,keypress,testRsp,95,[],choice-response,Pa,618efaee23d7c4bb8420b7c8,pa5,909,117,DiscriminationTrials
608073d7f5aa0f29e467168b,Group_FJ,0,56f876e6eea5aae750f1c8745f8ad6ce1d6433030fbd1b2a5249925c62907a59,2298.3637430667877,False,keypress,testRsp,137,[],choice-response,Ba,618efaee23d7c4bb8420b7c8,pa7,958,118,DiscriminationTrials
608073d7f5aa0f29e467168b,Group_FJ,0,56f876e6eea5aae750f1c8745f8ad6ce1d6433030fbd1b2a5249925c62907a59,2298.3637430667877,False,keypress,testRsp,540,[],choice-response,Ba,618efaee23d7c4bb8420b7c8,pa6,1657,119,DiscriminationTrials
608073d7f5aa0f29e467168b,Group_FJ,0,56f876e6eea5aae750f1c8745f8ad6ce1d6433030fbd1b2a5249925c62907a59,2298.3637430667877,False,keypress,testRsp,274,[],choice-response,Pa,618efaee23d7c4bb8420b7c8,pa1,1323,120,DiscriminationTrials
608073d7f5aa0f29e467168b,Group_FJ,0,56f876e6eea5aae750f1c8745f8ad6ce1d6433030fbd1b2a5249925c62907a59,2298.3637430667877,False,keypress,testRsp,258,[],choice-response,Pa,618efaee23d7c4bb8420b7c8,pa4,1437,121,DiscriminationTrials
608073d7f5aa0f29e467168b,Group_FJ,0,56f876e6eea5aae750f1c8745f8ad6ce1d6433030fbd1b2a5249925c62907a59,2298.3637430667877,False,keypress,testRsp,186,[],choice-response,Pa,618efaee23d7c4bb8420b7c8,pa2,1221,122,DiscriminationTrials
608073d7f5aa0f29e467168b,Group_FJ,0,56f876e6eea5aae750f1c8745f8ad6ce1d6433030fbd1b2a5249925c62907a59,2298.3637430667877,False,keypress,testRsp,146,[],choice-response,Pa,618efaee23d7c4bb8420b7c8,pa3,1117,123,DiscriminationTrials
608073d7f5aa0f29e467168b,Group_FJ,0,56f876e6eea5aae750f1c8745f8ad6ce1d6433030fbd1b2a5249925c62907a59,2298.3637430667877,False,keypress,testRsp,201,[],choice-response,Ba,618efaee23d7c4bb8420b7c8,pa8,1186,124,DiscriminationTrials
608073d7f5aa0f29e467168b,Group_FJ,0,56f876e6eea5aae750f1c8745f8ad6ce1d6433030fbd1b2a5249925c62907a59,2298.3637430667877,False,keypress,testRsp,233,[],choice-response,Pa,618efaee23d7c4bb8420b7c8,pa4,1064,125,DiscriminationTrials
608073d7f5aa0f29e467168b,Group_FJ,0,56f876e6eea5aae750f1c8745f8ad6ce1d6433030fbd1b2a5249925c62907a59,2298.3637430667877,False,keypress,testRsp,309,[],choice-response,Pa,618efaee23d7c4bb8420b7c8,pa1,1149,126,DiscriminationTrials
608073d7f5aa0f29e467168b,Group_FJ,0,56f876e6eea5aae750f1c8745f8ad6ce1d6433030fbd1b2a5249925c62907a59,2298.3637430667877,False,keypress,testRsp,274,[],choice-response,Ba,618efaee23d7c4bb8420b7c8,pa7,1095,127,DiscriminationTrials
608073d7f5aa0f29e467168b,Group_FJ,0,56f876e6eea5aae750f1c8745f8ad6ce1d6433030fbd1b2a5249925c62907a59,2298.3637430667877,False,keypress,testRsp,486,[],choice-response,Ba,618efaee23d7c4bb8420b7c8,pa5,1566,128,DiscriminationTrials
608073d7f5aa0f29e467168b,Group_FJ,0,56f876e6eea5aae750f1c8745f8ad6ce1d6433030fbd1b2a5249925c62907a59,2298.3637430667877,False,keypress,testRsp,221,[],choice-response,Ba,618efaee23d7c4bb8420b7c8,pa8,1027,129,DiscriminationTrials
608073d7f5aa0f29e467168b,Group_FJ,0,56f876e6eea5aae750f1c8745f8ad6ce1d6433030fbd1b2a5249925c62907a59,2298.3637430667877,False,keypress,testRsp,227,[],choice-response,Pa,618efaee23d7c4bb8420b7c8,pa2,1060,130,DiscriminationTrials
608073d7f5aa0f29e467168b,Group_FJ,0,56f876e6eea5aae750f1c8745f8ad6ce1d6433030fbd1b2a5249925c62907a59,2298.3637430667877,False,keypress,testRsp,603,[],choice-response,Ba,618efaee23d7c4bb8420b7c8,pa6,1405,131,DiscriminationTrials
608073d7f5aa0f29e467168b,Group_FJ,0,56f876e6eea5aae750f1c8745f8ad6ce1d6433030fbd1b2a5249925c62907a59,2298.3637430667877,False,keypress,testRsp,192,[],choice-response,Ba,618efaee23d7c4bb8420b7c8,pa3,1027,132,DiscriminationTrials
608073d7f5aa0f29e467168b,Group_FJ,0,56f876e6eea5aae750f1c8745f8ad6ce1d6433030fbd1b2a5249925c62907a59,2298.3637430667877,False,keypress,testRsp,256,[],choice-response,Ba,618efaee23d7c4bb8420b7c8,pa8,1074,133,DiscriminationTrials
608073d7f5aa0f29e467168b,Group_FJ,0,56f876e6eea5aae750f1c8745f8ad6ce1d6433030fbd1b2a5249925c62907a59,2298.3637430667877,False,keypress,testRsp,584,[],choice-response,Pa,618efaee23d7c4bb8420b7c8,pa1,1432,134,DiscriminationTrials
608073d7f5aa0f29e467168b,Group_FJ,0,56f876e6eea5aae750f1c8745f8ad6ce1d6433030fbd1b2a5249925c62907a59,2298.3637430667877,False,keypress,testRsp,169,[],choice-response,Pa,618efaee23d7c4bb8420b7c8,pa3,1003,135,DiscriminationTrials
608073d7f5aa0f29e467168b,Group_FJ,0,56f876e6eea5aae750f1c8745f8ad6ce1d6433030fbd1b2a5249925c62907a59,2298.3637430667877,False,keypress,testRsp,272,[],choice-response,Ba,618efaee23d7c4bb8420b7c8,pa6,1085,136,DiscriminationTrials
608073d7f5aa0f29e467168b,Group_FJ,0,56f876e6eea5aae750f1c8745f8ad6ce1d6433030fbd1b2a5249925c62907a59,2298.3637430667877,False,keypress,testRsp,164,[],choice-response,Ba,618efaee23d7c4bb8420b7c8,pa5,983,137,DiscriminationTrials
608073d7f5aa0f29e467168b,Group_FJ,0,56f876e6eea5aae750f1c8745f8ad6ce1d6433030fbd1b2a5249925c62907a59,2298.3637430667877,False,keypress,testRsp,259,[],choice-response,Ba,618efaee23d7c4bb8420b7c8,pa7,1072,138,DiscriminationTrials
608073d7f5aa0f29e467168b,Group_FJ,0,56f876e6eea5aae750f1c8745f8ad6ce1d6433030fbd1b2a5249925c62907a59,2298.3637430667877,False,keypress,testRsp,251,[],choice-response,Pa,618efaee23d7c4bb8420b7c8,pa4,1087,139,DiscriminationTrials
608073d7f5aa0f29e467168b,Group_FJ,0,56f876e6eea5aae750f1c8745f8ad6ce1d6433030fbd1b2a5249925c62907a59,2298.3637430667877,False,keypress,testRsp,308,[],choice-response,Pa,618efaee23d7c4bb8420b7c8,pa2,1147,140,DiscriminationTrials
608073d7f5aa0f29e467168b,Group_FJ,0,56f876e6eea5aae750f1c8745f8ad6ce1d6433030fbd1b2a5249925c62907a59,2298.3637430667877,False,keypress,testRsp,210,[],choice-response,Pa,618efaee23d7c4bb8420b7c8,pa4,1054,141,DiscriminationTrials
608073d7f5aa0f29e467168b,Group_FJ,0,56f876e6eea5aae750f1c8745f8ad6ce1d6433030fbd1b2a5249925c62907a59,2298.3637430667877,False,keypress,testRsp,464,[],choice-response,Pa,618efaee23d7c4bb8420b7c8,pa1,1308,142,DiscriminationTrials
608073d7f5aa0f29e467168b,Group_FJ,0,56f876e6eea5aae750f1c8745f8ad6ce1d6433030fbd1b2a5249925c62907a59,2298.3637430667877,False,keypress,testRsp,344,[],choice-response,Ba,618efaee23d7c4bb8420b7c8,pa6,1468,143,DiscriminationTrials
608073d7f5aa0f29e467168b,Group_FJ,0,56f876e6eea5aae750f1c8745f8ad6ce1d6433030fbd1b2a5249925c62907a59,2298.3637430667877,False,keypress,testRsp,265,[],choice-response,Pa,618efaee23d7c4bb8420b7c8,pa3,1394,144,DiscriminationTrials
608073d7f5aa0f29e467168b,Group_FJ,0,56f876e6eea5aae750f1c8745f8ad6ce1d6433030fbd1b2a5249925c62907a59,2298.3637430667877,False,keypress,testRsp,323,[],choice-response,Ba,618efaee23d7c4bb8420b7c8,pa7,1271,145,DiscriminationTrials
608073d7f5aa0f29e467168b,Group_FJ,0,56f876e6eea5aae750f1c8745f8ad6ce1d6433030fbd1b2a5249925c62907a59,2298.3637430667877,False,keypress,testRsp,552,[],choice-response,Pa,618efaee23d7c4bb8420b7c8,pa2,1661,146,DiscriminationTrials
608073d7f5aa0f29e467168b,Group_FJ,0,56f876e6eea5aae750f1c8745f8ad6ce1d6433030fbd1b2a5249925c62907a59,2298.3637430667877,False,keypress,testRsp,175,[],choice-response,Ba,618efaee23d7c4bb8420b7c8,pa8,1195,147,DiscriminationTrials
608073d7f5aa0f29e467168b,Group_FJ,0,56f876e6eea5aae750f1c8745f8ad6ce1d6433030fbd1b2a5249925c62907a59,2298.3637430667877,False,keypress,testRsp,546,[],choice-response,Ba,618efaee23d7c4bb8420b7c8,pa5,1503,148,DiscriminationTrials
608073d7f5aa0f29e467168b,Group_FJ,0,56f876e6eea5aae750f1c8745f8ad6ce1d6433030fbd1b2a5249925c62907a59,2298.3637430667877,False,keypress,testRsp,383,[],choice-response,Pa,618efaee23d7c4bb8420b7c8,pa3,1215,149,DiscriminationTrials
608073d7f5aa0f29e467168b,Group_FJ,0,56f876e6eea5aae750f1c8745f8ad6ce1d6433030fbd1b2a5249925c62907a59,2298.3637430667877,False,keypress,testRsp,435,[],choice-response,Pa,618efaee23d7c4bb8420b7c8,pa4,1624,150,DiscriminationTrials
608073d7f5aa0f29e467168b,Group_FJ,0,56f876e6eea5aae750f1c8745f8ad6ce1d6433030fbd1b2a5249925c62907a59,2298.3637430667877,False,keypress,testRsp,887,[],choice-response,Pa,618efaee23d7c4bb8420b7c8,pa5,1704,151,DiscriminationTrials
608073d7f5aa0f29e467168b,Group_FJ,0,56f876e6eea5aae750f1c8745f8ad6ce1d6433030fbd1b2a5249925c62907a59,2298.3637430667877,False,keypress,testRsp,1054,[],choice-response,Ba,618efaee23d7c4bb8420b7c8,pa2,1901,152,DiscriminationTrials
608073d7f5aa0f29e467168b,Group_FJ,0,56f876e6eea5aae750f1c8745f8ad6ce1d6433030fbd1b2a5249925c62907a59,2298.3637430667877,False,keypress,testRsp,411,[],choice-response,Ba,618efaee23d7c4bb8420b7c8,pa6,1225,153,DiscriminationTrials
608073d7f5aa0f29e467168b,Group_FJ,0,56f876e6eea5aae750f1c8745f8ad6ce1d6433030fbd1b2a5249925c62907a59,2298.3637430667877,False,keypress,testRsp,156,[],choice-response,Pa,618efaee23d7c4bb8420b7c8,pa1,1000,154,DiscriminationTrials
608073d7f5aa0f29e467168b,Group_FJ,0,56f876e6eea5aae750f1c8745f8ad6ce1d6433030fbd1b2a5249925c62907a59,2298.3637430667877,False,keypress,testRsp,403,[],choice-response,Ba,618efaee23d7c4bb8420b7c8,pa8,1215,155,DiscriminationTrials
608073d7f5aa0f29e467168b,Group_FJ,0,56f876e6eea5aae750f1c8745f8ad6ce1d6433030fbd1b2a5249925c62907a59,2298.3637430667877,False,keypress,testRsp,237,[],choice-response,Ba,618efaee23d7c4bb8420b7c8,pa7,1045,156,DiscriminationTrials
608073d7f5aa0f29e467168b,Group_FJ,0,56f876e6eea5aae750f1c8745f8ad6ce1d6433030fbd1b2a5249925c62907a59,2298.3637430667877,False,keypress,testRsp,140,[],choice-response,Ba,618efaee23d7c4bb8420b7c8,pa8,947,157,DiscriminationTrials
608073d7f5aa0f29e467168b,Group_FJ,0,56f876e6eea5aae750f1c8745f8ad6ce1d6433030fbd1b2a5249925c62907a59,2298.3637430667877,False,keypress,testRsp,503,[],choice-response,Pa,618efaee23d7c4bb8420b7c8,pa5,1320,158,DiscriminationTrials
608073d7f5aa0f29e467168b,Group_FJ,0,56f876e6eea5aae750f1c8745f8ad6ce1d6433030fbd1b2a5249925c62907a59,2298.3637430667877,False,keypress,testRsp,299,[],choice-response,Pa,618efaee23d7c4bb8420b7c8,pa2,1132,159,DiscriminationTrials
608073d7f5aa0f29e467168b,Group_FJ,0,56f876e6eea5aae750f1c8745f8ad6ce1d6433030fbd1b2a5249925c62907a59,2298.3637430667877,False,keypress,testRsp,456,[],choice-response,Pa,618efaee23d7c4bb8420b7c8,pa3,1288,160,DiscriminationTrials
608073d7f5aa0f29e467168b,Group_FJ,0,56f876e6eea5aae750f1c8745f8ad6ce1d6433030fbd1b2a5249925c62907a59,2298.3637430667877,False,keypress,testRsp,484,[],choice-response,Pa,618efaee23d7c4bb8420b7c8,pa4,1319,161,DiscriminationTrials
608073d7f5aa0f29e467168b,Group_FJ,0,56f876e6eea5aae750f1c8745f8ad6ce1d6433030fbd1b2a5249925c62907a59,2298.3637430667877,False,keypress,testRsp,376,[],choice-response,Ba,618efaee23d7c4bb8420b7c8,pa6,1199,162,DiscriminationTrials
608073d7f5aa0f29e467168b,Group_FJ,0,56f876e6eea5aae750f1c8745f8ad6ce1d6433030fbd1b2a5249925c62907a59,2298.3637430667877,False,keypress,testRsp,166,[],choice-response,Ba,618efaee23d7c4bb8420b7c8,pa7,986,163,DiscriminationTrials
608073d7f5aa0f29e467168b,Group_FJ,0,56f876e6eea5aae750f1c8745f8ad6ce1d6433030fbd1b2a5249925c62907a59,2298.3637430667877,False,keypress,testRsp,283,[],choice-response,Pa,618efaee23d7c4bb8420b7c8,pa1,1128,164,DiscriminationTrials
608073d7f5aa0f29e467168b,Group_FJ,0,56f876e6eea5aae750f1c8745f8ad6ce1d6433030fbd1b2a5249925c62907a59,2298.3637430667877,False,keypress,testRsp,316,[],choice-response,Ba,618efaee23d7c4bb8420b7c8,pa6,1123,165,DiscriminationTrials
608073d7f5aa0f29e467168b,Group_FJ,0,56f876e6eea5aae750f1c8745f8ad6ce1d6433030fbd1b2a5249925c62907a59,2298.3637430667877,False,keypress,testRsp,435,[],choice-response,Pa,618efaee23d7c4bb8420b7c8,pa1,1414,166,DiscriminationTrials
608073d7f5aa0f29e467168b,Group_FJ,0,56f876e6eea5aae750f1c8745f8ad6ce1d6433030fbd1b2a5249925c62907a59,2298.3637430667877,False,keypress,testRsp,445,[],choice-response,Pa,618efaee23d7c4bb8420b7c8,pa4,1502,167,DiscriminationTrials
608073d7f5aa0f29e467168b,Group_FJ,0,56f876e6eea5aae750f1c8745f8ad6ce1d6433030fbd1b2a5249925c62907a59,2298.3637430667877,False,keypress,testRsp,739,[],choice-response,Ba,618efaee23d7c4bb8420b7c8,pa5,1720,168,DiscriminationTrials
608073d7f5aa0f29e467168b,Group_FJ,0,56f876e6eea5aae750f1c8745f8ad6ce1d6433030fbd1b2a5249925c62907a59,2298.3637430667877,False,keypress,testRsp,1674,[],choice-response,Ba,618efaee23d7c4bb8420b7c8,pa2,2809,169,DiscriminationTrials
608073d7f5aa0f29e467168b,Group_FJ,0,56f876e6eea5aae750f1c8745f8ad6ce1d6433030fbd1b2a5249925c62907a59,2298.3637430667877,False,keypress,testRsp,440,[],choice-response,Ba,618efaee23d7c4bb8420b7c8,pa8,1392,170,DiscriminationTrials
608073d7f5aa0f29e467168b,Group_FJ,0,56f876e6eea5aae750f1c8745f8ad6ce1d6433030fbd1b2a5249925c62907a59,2298.3637430667877,False,keypress,testRsp,194,[],choice-response,Ba,618efaee23d7c4bb8420b7c8,pa7,1148,171,DiscriminationTrials
608073d7f5aa0f29e467168b,Group_FJ,0,56f876e6eea5aae750f1c8745f8ad6ce1d6433030fbd1b2a5249925c62907a59,2298.3637430667877,False,keypress,testRsp,724,[],choice-response,Pa,618efaee23d7c4bb8420b7c8,pa3,1705,172,DiscriminationTrials
608073d7f5aa0f29e467168b,Group_FJ,0,56f876e6eea5aae750f1c8745f8ad6ce1d6433030fbd1b2a5249925c62907a59,2298.3637430667877,False,keypress,testRsp,361,[],choice-response,Ba,618efaee23d7c4bb8420b7c8,pa7,1185,173,DiscriminationTrials
608073d7f5aa0f29e467168b,Group_FJ,0,56f876e6eea5aae750f1c8745f8ad6ce1d6433030fbd1b2a5249925c62907a59,2298.3637430667877,False,keypress,testRsp,1033,[],choice-response,Ba,618efaee23d7c4bb8420b7c8,pa6,1843,174,DiscriminationTrials
608073d7f5aa0f29e467168b,Group_FJ,0,56f876e6eea5aae750f1c8745f8ad6ce1d6433030fbd1b2a5249925c62907a59,2298.3637430667877,False,keypress,testRsp,297,[],choice-response,Pa,618efaee23d7c4bb8420b7c8,pa3,1138,175,DiscriminationTrials
608073d7f5aa0f29e467168b,Group_FJ,0,56f876e6eea5aae750f1c8745f8ad6ce1d6433030fbd1b2a5249925c62907a59,2298.3637430667877,False,keypress,testRsp,217,[],choice-response,Pa,618efaee23d7c4bb8420b7c8,pa4,1052,176,DiscriminationTrials
608073d7f5aa0f29e467168b,Group_FJ,0,56f876e6eea5aae750f1c8745f8ad6ce1d6433030fbd1b2a5249925c62907a59,2298.3637430667877,False,keypress,testRsp,510,[],choice-response,Ba,618efaee23d7c4bb8420b7c8,pa8,1336,177,DiscriminationTrials
608073d7f5aa0f29e467168b,Group_FJ,0,56f876e6eea5aae750f1c8745f8ad6ce1d6433030fbd1b2a5249925c62907a59,2298.3637430667877,False,keypress,testRsp,377,[],choice-response,Pa,618efaee23d7c4bb8420b7c8,pa5,1201,178,DiscriminationTrials
608073d7f5aa0f29e467168b,Group_FJ,0,56f876e6eea5aae750f1c8745f8ad6ce1d6433030fbd1b2a5249925c62907a59,2298.3637430667877,False,keypress,testRsp,339,[],choice-response,Pa,618efaee23d7c4bb8420b7c8,pa2,1174,179,DiscriminationTrials
608073d7f5aa0f29e467168b,Group_FJ,0,56f876e6eea5aae750f1c8745f8ad6ce1d6433030fbd1b2a5249925c62907a59,2298.3637430667877,False,keypress,testRsp,592,[],choice-response,Pa,618efaee23d7c4bb8420b7c8,pa1,1444,180,DiscriminationTrials
608073d7f5aa0f29e467168b,Group_FJ,0,56f876e6eea5aae750f1c8745f8ad6ce1d6433030fbd1b2a5249925c62907a59,2298.3637430667877,False,keypress,testRsp,181,[],choice-response,Pa,618efaee23d7c4bb8420b7c8,pa1,1019,181,DiscriminationTrials
608073d7f5aa0f29e467168b,Group_FJ,0,56f876e6eea5aae750f1c8745f8ad6ce1d6433030fbd1b2a5249925c62907a59,2298.3637430667877,False,keypress,testRsp,140,[],choice-response,Ba,618efaee23d7c4bb8420b7c8,pa8,969,182,DiscriminationTrials
608073d7f5aa0f29e467168b,Group_FJ,0,56f876e6eea5aae750f1c8745f8ad6ce1d6433030fbd1b2a5249925c62907a59,2298.3637430667877,False,keypress,testRsp,206,[],choice-response,Pa,618efaee23d7c4bb8420b7c8,pa4,1037,183,DiscriminationTrials
608073d7f5aa0f29e467168b,Group_FJ,0,56f876e6eea5aae750f1c8745f8ad6ce1d6433030fbd1b2a5249925c62907a59,2298.3637430667877,False,keypress,testRsp,130,[],choice-response,Pa,618efaee23d7c4bb8420b7c8,pa2,970,184,DiscriminationTrials
608073d7f5aa0f29e467168b,Group_FJ,0,56f876e6eea5aae750f1c8745f8ad6ce1d6433030fbd1b2a5249925c62907a59,2298.3637430667877,False,keypress,testRsp,451,[],choice-response,Ba,618efaee23d7c4bb8420b7c8,pa6,1289,185,DiscriminationTrials
608073d7f5aa0f29e467168b,Group_FJ,0,56f876e6eea5aae750f1c8745f8ad6ce1d6433030fbd1b2a5249925c62907a59,2298.3637430667877,False,keypress,testRsp,373,[],choice-response,Ba,618efaee23d7c4bb8420b7c8,pa7,1192,186,DiscriminationTrials
608073d7f5aa0f29e467168b,Group_FJ,0,56f876e6eea5aae750f1c8745f8ad6ce1d6433030fbd1b2a5249925c62907a59,2298.3637430667877,False,keypress,testRsp,204,[],choice-response,Pa,618efaee23d7c4bb8420b7c8,pa3,1344,187,DiscriminationTrials
608073d7f5aa0f29e467168b,Group_FJ,0,56f876e6eea5aae750f1c8745f8ad6ce1d6433030fbd1b2a5249925c62907a59,2298.3637430667877,False,keypress,testRsp,217,[],choice-response,Pa,618efaee23d7c4bb8420b7c8,pa5,1202,188,DiscriminationTrials
608073d7f5aa0f29e467168b,Group_FJ,0,56f876e6eea5aae750f1c8745f8ad6ce1d6433030fbd1b2a5249925c62907a59,2298.3637430667877,False,keypress,testRsp,267,[],choice-response,Pa,618efaee23d7c4bb8420b7c8,pa4,1282,189,DiscriminationTrials
608073d7f5aa0f29e467168b,Group_FJ,0,56f876e6eea5aae750f1c8745f8ad6ce1d6433030fbd1b2a5249925c62907a59,2298.3637430667877,False,keypress,testRsp,127,[],choice-response,Ba,618efaee23d7c4bb8420b7c8,pa8,1072,190,DiscriminationTrials
608073d7f5aa0f29e467168b,Group_FJ,0,56f876e6eea5aae750f1c8745f8ad6ce1d6433030fbd1b2a5249925c62907a59,2298.3637430667877,False,keypress,testRsp,162,[],choice-response,Pa,618efaee23d7c4bb8420b7c8,pa2,1130,191,DiscriminationTrials
608073d7f5aa0f29e467168b,Group_FJ,0,56f876e6eea5aae750f1c8745f8ad6ce1d6433030fbd1b2a5249925c62907a59,2298.3637430667877,False,keypress,testRsp,80,[],choice-response,Pa,618efaee23d7c4bb8420b7c8,pa6,1046,192,DiscriminationTrials
608073d7f5aa0f29e467168b,Group_FJ,0,56f876e6eea5aae750f1c8745f8ad6ce1d6433030fbd1b2a5249925c62907a59,2298.3637430667877,False,keypress,testRsp,1285,[],choice-response,Ba,618efaee23d7c4bb8420b7c8,pa1,2664,193,DiscriminationTrials
608073d7f5aa0f29e467168b,Group_FJ,0,56f876e6eea5aae750f1c8745f8ad6ce1d6433030fbd1b2a5249925c62907a59,2298.3637430667877,False,keypress,testRsp,100,[],choice-response,Ba,618efaee23d7c4bb8420b7c8,pa5,925,194,DiscriminationTrials
608073d7f5aa0f29e467168b,Group_FJ,0,56f876e6eea5aae750f1c8745f8ad6ce1d6433030fbd1b2a5249925c62907a59,2298.3637430667877,False,keypress,testRsp,153,[],choice-response,Ba,618efaee23d7c4bb8420b7c8,pa7,985,195,DiscriminationTrials
608073d7f5aa0f29e467168b,Group_FJ,0,56f876e6eea5aae750f1c8745f8ad6ce1d6433030fbd1b2a5249925c62907a59,2298.3637430667877,False,keypress,testRsp,69,[],choice-response,Ba,618efaee23d7c4bb8420b7c8,pa3,909,196,DiscriminationTrials
608073d7f5aa0f29e467168b,Group_FJ,0,56f876e6eea5aae750f1c8745f8ad6ce1d6433030fbd1b2a5249925c62907a59,2298.3637430667877,False,keypress,testRsp,252,[],choice-response,Pa,618efaee23d7c4bb8420b7c8,pa2,1102,197,DiscriminationTrials
608073d7f5aa0f29e467168b,Group_FJ,0,56f876e6eea5aae750f1c8745f8ad6ce1d6433030fbd1b2a5249925c62907a59,2298.3637430667877,False,keypress,testRsp,285,[],choice-response,Ba,618efaee23d7c4bb8420b7c8,pa7,1096,198,DiscriminationTrials
608073d7f5aa0f29e467168b,Group_FJ,0,56f876e6eea5aae750f1c8745f8ad6ce1d6433030fbd1b2a5249925c62907a59,2298.3637430667877,False,keypress,testRsp,114,[],choice-response,Ba,618efaee23d7c4bb8420b7c8,pa8,922,199,DiscriminationTrials
608073d7f5aa0f29e467168b,Group_FJ,0,56f876e6eea5aae750f1c8745f8ad6ce1d6433030fbd1b2a5249925c62907a59,2298.3637430667877,False,keypress,testRsp,86,[],choice-response,Pa,618efaee23d7c4bb8420b7c8,pa4,920,200,DiscriminationTrials
608073d7f5aa0f29e467168b,Group_FJ,0,56f876e6eea5aae750f1c8745f8ad6ce1d6433030fbd1b2a5249925c62907a59,2298.3637430667877,False,keypress,testRsp,17,[],choice-response,Pa,618efaee23d7c4bb8420b7c8,pa3,867,201,DiscriminationTrials
608073d7f5aa0f29e467168b,Group_FJ,0,56f876e6eea5aae750f1c8745f8ad6ce1d6433030fbd1b2a5249925c62907a59,2298.3637430667877,False,keypress,testRsp,536,[],choice-response,Pa,618efaee23d7c4bb8420b7c8,pa1,1374,202,DiscriminationTrials
608073d7f5aa0f29e467168b,Group_FJ,0,56f876e6eea5aae750f1c8745f8ad6ce1d6433030fbd1b2a5249925c62907a59,2298.3637430667877,False,keypress,testRsp,150,[],choice-response,Ba,618efaee23d7c4bb8420b7c8,pa6,966,203,DiscriminationTrials
608073d7f5aa0f29e467168b,Group_FJ,0,56f876e6eea5aae750f1c8745f8ad6ce1d6433030fbd1b2a5249925c62907a59,2298.3637430667877,False,keypress,testRsp,203,[],choice-response,Ba,618efaee23d7c4bb8420b7c8,pa5,1024,204,DiscriminationTrials
608073d7f5aa0f29e467168b,Group_FJ,0,56f876e6eea5aae750f1c8745f8ad6ce1d6433030fbd1b2a5249925c62907a59,2298.3637430667877,False,keypress,testRsp,32,[],choice-response,Ba,618efaee23d7c4bb8420b7c8,pa4,885,205,DiscriminationTrials
608073d7f5aa0f29e467168b,Group_FJ,0,56f876e6eea5aae750f1c8745f8ad6ce1d6433030fbd1b2a5249925c62907a59,2298.3637430667877,False,keypress,testRsp,70,[],choice-response,Pa,618efaee23d7c4bb8420b7c8,pa7,886,206,DiscriminationTrials
608073d7f5aa0f29e467168b,Group_FJ,0,56f876e6eea5aae750f1c8745f8ad6ce1d6433030fbd1b2a5249925c62907a59,2298.3637430667877,False,keypress,testRsp,434,[],choice-response,Ba,618efaee23d7c4bb8420b7c8,pa5,1258,207,DiscriminationTrials
608073d7f5aa0f29e467168b,Group_FJ,0,56f876e6eea5aae750f1c8745f8ad6ce1d6433030fbd1b2a5249925c62907a59,2298.3637430667877,False,keypress,testRsp,1055,[],choice-response,Ba,618efaee23d7c4bb8420b7c8,pa8,1875,208,DiscriminationTrials
608073d7f5aa0f29e467168b,Group_FJ,0,56f876e6eea5aae750f1c8745f8ad6ce1d6433030fbd1b2a5249925c62907a59,2298.3637430667877,False,keypress,testRsp,202,[],choice-response,Pa,618efaee23d7c4bb8420b7c8,pa3,1037,209,DiscriminationTrials
608073d7f5aa0f29e467168b,Group_FJ,0,56f876e6eea5aae750f1c8745f8ad6ce1d6433030fbd1b2a5249925c62907a59,2298.3637430667877,False,keypress,testRsp,104,[],choice-response,Pa,618efaee23d7c4bb8420b7c8,pa1,937,210,DiscriminationTrials
608073d7f5aa0f29e467168b,Group_FJ,0,56f876e6eea5aae750f1c8745f8ad6ce1d6433030fbd1b2a5249925c62907a59,2298.3637430667877,False,keypress,testRsp,8668,[],choice-response,Ba,618efaee23d7c4bb8420b7c8,pa6,9496,211,DiscriminationTrials
608073d7f5aa0f29e467168b,Group_FJ,0,56f876e6eea5aae750f1c8745f8ad6ce1d6433030fbd1b2a5249925c62907a59,2298.3637430667877,False,keypress,testRsp,1127,[],choice-response,Pa,618efaee23d7c4bb8420b7c8,pa2,2312,212,DiscriminationTrials
608073d7f5aa0f29e467168b,Group_FJ,0,56f876e6eea5aae750f1c8745f8ad6ce1d6433030fbd1b2a5249925c62907a59,2298.3637430667877,False,keypress,testRsp,364,[],choice-response,Pa,618efaee23d7c4bb8420b7c8,pa6,1183,213,DiscriminationTrials
608073d7f5aa0f29e467168b,Group_FJ,0,56f876e6eea5aae750f1c8745f8ad6ce1d6433030fbd1b2a5249925c62907a59,2298.3637430667877,False,keypress,testRsp,225,[],choice-response,Pa,618efaee23d7c4bb8420b7c8,pa2,1071,214,DiscriminationTrials
608073d7f5aa0f29e467168b,Group_FJ,0,56f876e6eea5aae750f1c8745f8ad6ce1d6433030fbd1b2a5249925c62907a59,2298.3637430667877,False,keypress,testRsp,227,[],choice-response,Pa,618efaee23d7c4bb8420b7c8,pa3,1436,215,DiscriminationTrials
608073d7f5aa0f29e467168b,Group_FJ,0,56f876e6eea5aae750f1c8745f8ad6ce1d6433030fbd1b2a5249925c62907a59,2298.3637430667877,False,keypress,testRsp,843,[],choice-response,Ba,618efaee23d7c4bb8420b7c8,pa8,2008,216,DiscriminationTrials
608073d7f5aa0f29e467168b,Group_FJ,0,56f876e6eea5aae750f1c8745f8ad6ce1d6433030fbd1b2a5249925c62907a59,2298.3637430667877,False,keypress,testRsp,742,[],choice-response,Ba,618efaee23d7c4bb8420b7c8,pa7,1954,217,DiscriminationTrials
608073d7f5aa0f29e467168b,Group_FJ,0,56f876e6eea5aae750f1c8745f8ad6ce1d6433030fbd1b2a5249925c62907a59,2298.3637430667877,False,keypress,testRsp,215,[],choice-response,Ba,618efaee23d7c4bb8420b7c8,pa5,1184,218,DiscriminationTrials
608073d7f5aa0f29e467168b,Group_FJ,0,56f876e6eea5aae750f1c8745f8ad6ce1d6433030fbd1b2a5249925c62907a59,2298.3637430667877,False,keypress,testRsp,227,[],choice-response,Ba,618efaee23d7c4bb8420b7c8,pa4,1387,219,DiscriminationTrials
608073d7f5aa0f29e467168b,Group_FJ,0,56f876e6eea5aae750f1c8745f8ad6ce1d6433030fbd1b2a5249925c62907a59,2298.3637430667877,False,keypress,testRsp,820,[],choice-response,Pa,618efaee23d7c4bb8420b7c8,pa1,1816,220,DiscriminationTrials
608073d7f5aa0f29e467168b,Group_FJ,0,56f876e6eea5aae750f1c8745f8ad6ce1d6433030fbd1b2a5249925c62907a59,2298.3637430667877,False,keypress,testRsp,660,[],choice-response,Pa,618efaee23d7c4bb8420b7c8,pa6,1484,221,DiscriminationTrials
608073d7f5aa0f29e467168b,Group_FJ,0,56f876e6eea5aae750f1c8745f8ad6ce1d6433030fbd1b2a5249925c62907a59,2298.3637430667877,False,keypress,testRsp,136,[],choice-response,Pa,618efaee23d7c4bb8420b7c8,pa2,972,222,DiscriminationTrials
608073d7f5aa0f29e467168b,Group_FJ,0,56f876e6eea5aae750f1c8745f8ad6ce1d6433030fbd1b2a5249925c62907a59,2298.3637430667877,False,keypress,testRsp,157,[],choice-response,Pa,618efaee23d7c4bb8420b7c8,pa1,993,223,DiscriminationTrials
608073d7f5aa0f29e467168b,Group_FJ,0,56f876e6eea5aae750f1c8745f8ad6ce1d6433030fbd1b2a5249925c62907a59,2298.3637430667877,False,keypress,testRsp,202,[],choice-response,Pa,618efaee23d7c4bb8420b7c8,pa3,1037,224,DiscriminationTrials
608073d7f5aa0f29e467168b,Group_FJ,0,56f876e6eea5aae750f1c8745f8ad6ce1d6433030fbd1b2a5249925c62907a59,2298.3637430667877,False,keypress,testRsp,189,[],choice-response,Pa,618efaee23d7c4bb8420b7c8,pa4,1041,225,DiscriminationTrials
608073d7f5aa0f29e467168b,Group_FJ,0,56f876e6eea5aae750f1c8745f8ad6ce1d6433030fbd1b2a5249925c62907a59,2298.3637430667877,False,keypress,testRsp,258,[],choice-response,Pa,618efaee23d7c4bb8420b7c8,pa5,1071,226,DiscriminationTrials
608073d7f5aa0f29e467168b,Group_FJ,0,56f876e6eea5aae750f1c8745f8ad6ce1d6433030fbd1b2a5249925c62907a59,2298.3637430667877,False,keypress,testRsp,371,[],choice-response,Ba,618efaee23d7c4bb8420b7c8,pa8,1190,227,DiscriminationTrials
608073d7f5aa0f29e467168b,Group_FJ,0,56f876e6eea5aae750f1c8745f8ad6ce1d6433030fbd1b2a5249925c62907a59,2298.3637430667877,False,keypress,testRsp,128,[],choice-response,Ba,618efaee23d7c4bb8420b7c8,pa7,947,228,DiscriminationTrials
608073d7f5aa0f29e467168b,Group_FJ,0,56f876e6eea5aae750f1c8745f8ad6ce1d6433030fbd1b2a5249925c62907a59,2298.3637430667877,False,keypress,testRsp,244,[],choice-response,Ba,618efaee23d7c4bb8420b7c8,pa5,1072,229,DiscriminationTrials
608073d7f5aa0f29e467168b,Group_FJ,0,56f876e6eea5aae750f1c8745f8ad6ce1d6433030fbd1b2a5249925c62907a59,2298.3637430667877,False,keypress,testRsp,1429,[],choice-response,Pa,618efaee23d7c4bb8420b7c8,pa4,2258,230,DiscriminationTrials
608073d7f5aa0f29e467168b,Group_FJ,0,56f876e6eea5aae750f1c8745f8ad6ce1d6433030fbd1b2a5249925c62907a59,2298.3637430667877,False,keypress,testRsp,478,[],choice-response,Pa,618efaee23d7c4bb8420b7c8,pa2,1319,231,DiscriminationTrials
608073d7f5aa0f29e467168b,Group_FJ,0,56f876e6eea5aae750f1c8745f8ad6ce1d6433030fbd1b2a5249925c62907a59,2298.3637430667877,False,keypress,testRsp,454,[],choice-response,Ba,618efaee23d7c4bb8420b7c8,pa7,1269,232,DiscriminationTrials
608073d7f5aa0f29e467168b,Group_FJ,0,56f876e6eea5aae750f1c8745f8ad6ce1d6433030fbd1b2a5249925c62907a59,2298.3637430667877,False,keypress,testRsp,169,[],choice-response,Ba,618efaee23d7c4bb8420b7c8,pa3,1268,233,DiscriminationTrials
608073d7f5aa0f29e467168b,Group_FJ,0,56f876e6eea5aae750f1c8745f8ad6ce1d6433030fbd1b2a5249925c62907a59,2298.3637430667877,False,keypress,testRsp,355,[],choice-response,Ba,618efaee23d7c4bb8420b7c8,pa8,1320,234,DiscriminationTrials
608073d7f5aa0f29e467168b,Group_FJ,0,56f876e6eea5aae750f1c8745f8ad6ce1d6433030fbd1b2a5249925c62907a59,2298.3637430667877,False,keypress,testRsp,194,[],choice-response,Ba,618efaee23d7c4bb8420b7c8,pa6,1148,235,DiscriminationTrials
608073d7f5aa0f29e467168b,Group_FJ,0,56f876e6eea5aae750f1c8745f8ad6ce1d6433030fbd1b2a5249925c62907a59,2298.3637430667877,False,keypress,testRsp,197,[],choice-response,Ba,618efaee23d7c4bb8420b7c8,pa1,1339,236,DiscriminationTrials
608073d7f5aa0f29e467168b,Group_FJ,0,56f876e6eea5aae750f1c8745f8ad6ce1d6433030fbd1b2a5249925c62907a59,2298.3637430667877,False,keypress,testRsp,595,[],choice-response,Ba,618efaee23d7c4bb8420b7c8,pa7,1412,237,DiscriminationTrials
608073d7f5aa0f29e467168b,Group_FJ,0,56f876e6eea5aae750f1c8745f8ad6ce1d6433030fbd1b2a5249925c62907a59,2298.3637430667877,False,keypress,testRsp,222,[],choice-response,Pa,618efaee23d7c4bb8420b7c8,pa1,1063,238,DiscriminationTrials
608073d7f5aa0f29e467168b,Group_FJ,0,56f876e6eea5aae750f1c8745f8ad6ce1d6433030fbd1b2a5249925c62907a59,2298.3637430667877,False,keypress,testRsp,238,[],choice-response,Pa,618efaee23d7c4bb8420b7c8,pa4,1222,239,DiscriminationTrials
608073d7f5aa0f29e467168b,Group_FJ,0,56f876e6eea5aae750f1c8745f8ad6ce1d6433030fbd1b2a5249925c62907a59,2298.3637430667877,False,keypress,testRsp,1096,[],choice-response,Pa,618efaee23d7c4bb8420b7c8,pa8,1907,240,DiscriminationTrials
608073d7f5aa0f29e467168b,Group_FJ,0,56f876e6eea5aae750f1c8745f8ad6ce1d6433030fbd1b2a5249925c62907a59,2298.3637430667877,False,keypress,testRsp,476,[],choice-response,Pa,618efaee23d7c4bb8420b7c8,pa3,1315,241,DiscriminationTrials
608073d7f5aa0f29e467168b,Group_FJ,0,56f876e6eea5aae750f1c8745f8ad6ce1d6433030fbd1b2a5249925c62907a59,2298.3637430667877,False,keypress,testRsp,1035,[],choice-response,Ba,618efaee23d7c4bb8420b7c8,pa5,2186,242,DiscriminationTrials
608073d7f5aa0f29e467168b,Group_FJ,0,56f876e6eea5aae750f1c8745f8ad6ce1d6433030fbd1b2a5249925c62907a59,2298.3637430667877,False,keypress,testRsp,332,[],choice-response,Ba,618efaee23d7c4bb8420b7c8,pa6,1148,243,DiscriminationTrials
608073d7f5aa0f29e467168b,Group_FJ,0,56f876e6eea5aae750f1c8745f8ad6ce1d6433030fbd1b2a5249925c62907a59,2298.3637430667877,False,keypress,testRsp,674,[],choice-response,Pa,618efaee23d7c4bb8420b7c8,pa2,1674,244,DiscriminationTrials
608073d7f5aa0f29e467168b,Group_FJ,0,56f876e6eea5aae750f1c8745f8ad6ce1d6433030fbd1b2a5249925c62907a59,2298.3637430667877,False,keypress,exampleRsp,1039,[],choice-response,Ba,618efaee23d7c4bb8420b7c8,ontime_pa8,4571,245,example
608073d7f5aa0f29e467168b,Group_FJ,0,56f876e6eea5aae750f1c8745f8ad6ce1d6433030fbd1b2a5249925c62907a59,2298.3637430667877,False,keypress,exampleRsp,148,[],choice-response,Pa,618efaee23d7c4bb8420b7c8,ontime_pa1,3325,246,example
608073d7f5aa0f29e467168b,Group_FJ,0,56f876e6eea5aae750f1c8745f8ad6ce1d6433030fbd1b2a5249925c62907a59,2298.3637430667877,False,keypress,exampleRsp,290,[],choice-response,Pa,618efaee23d7c4bb8420b7c8,ontime_pa1,3253,247,example
608073d7f5aa0f29e467168b,Group_FJ,0,56f876e6eea5aae750f1c8745f8ad6ce1d6433030fbd1b2a5249925c62907a59,2298.3637430667877,False,keypress,exampleRsp,246,[],choice-response,Ba,618efaee23d7c4bb8420b7c8,ontime_pa8,3302,248,example
608073d7f5aa0f29e467168b,Group_FJ,0,56f876e6eea5aae750f1c8745f8ad6ce1d6433030fbd1b2a5249925c62907a59,2298.3637430667877,False,keypress,testRsp,372,[],choice-response,Ba,618efaee23d7c4bb8420b7c8,late_pa1,3672,249,maintaskTrials
608073d7f5aa0f29e467168b,Group_FJ,0,56f876e6eea5aae750f1c8745f8ad6ce1d6433030fbd1b2a5249925c62907a59,2298.3637430667877,False,keypress,testRsp,345,[],choice-response,Pa,618efaee23d7c4bb8420b7c8,late_pa2,3464,250,maintaskTrials
608073d7f5aa0f29e467168b,Group_FJ,0,56f876e6eea5aae750f1c8745f8ad6ce1d6433030fbd1b2a5249925c62907a59,2298.3637430667877,False,keypress,testRsp,199,[],choice-response,Pa,618efaee23d7c4bb8420b7c8,early_pa2,3307,251,maintaskTrials
608073d7f5aa0f29e467168b,Group_FJ,0,56f876e6eea5aae750f1c8745f8ad6ce1d6433030fbd1b2a5249925c62907a59,2298.3637430667877,False,keypress,testRsp,316,[],choice-response,Ba,618efaee23d7c4bb8420b7c8,late_pa6,3750,252,maintaskTrials
608073d7f5aa0f29e467168b,Group_FJ,0,56f876e6eea5aae750f1c8745f8ad6ce1d6433030fbd1b2a5249925c62907a59,2298.3637430667877,False,keypress,testRsp,285,[],choice-response,Ba,618efaee23d7c4bb8420b7c8,ontime_pa8,3498,253,maintaskTrials
608073d7f5aa0f29e467168b,Group_FJ,0,56f876e6eea5aae750f1c8745f8ad6ce1d6433030fbd1b2a5249925c62907a59,2298.3637430667877,False,keypress,testRsp,417,[],choice-response,Ba,618efaee23d7c4bb8420b7c8,early_pa8,3463,254,maintaskTrials
608073d7f5aa0f29e467168b,Group_FJ,0,56f876e6eea5aae750f1c8745f8ad6ce1d6433030fbd1b2a5249925c62907a59,2298.3637430667877,False,keypress,testRsp,175,[],choice-response,Pa,618efaee23d7c4bb8420b7c8,ontime_pa3,3288,255,maintaskTrials
608073d7f5aa0f29e467168b,Group_FJ,0,56f876e6eea5aae750f1c8745f8ad6ce1d6433030fbd1b2a5249925c62907a59,2298.3637430667877,False,keypress,testRsp,206,[],choice-response,Pa,618efaee23d7c4bb8420b7c8,early_pa1,3322,256,maintaskTrials
608073d7f5aa0f29e467168b,Group_FJ,0,56f876e6eea5aae750f1c8745f8ad6ce1d6433030fbd1b2a5249925c62907a59,2298.3637430667877,False,keypress,testRsp,657,[],choice-response,Ba,618efaee23d7c4bb8420b7c8,ontime_pa5,3884,257,maintaskTrials
608073d7f5aa0f29e467168b,Group_FJ,0,56f876e6eea5aae750f1c8745f8ad6ce1d6433030fbd1b2a5249925c62907a59,2298.3637430667877,False,keypress,testRsp,270,[],choice-response,Ba,618efaee23d7c4bb8420b7c8,early_pa5,3362,258,maintaskTrials
608073d7f5aa0f29e467168b,Group_FJ,0,56f876e6eea5aae750f1c8745f8ad6ce1d6433030fbd1b2a5249925c62907a59,2298.3637430667877,False,keypress,testRsp,360,[],choice-response,Ba,618efaee23d7c4bb8420b7c8,early_pa6,3657,259,maintaskTrials
608073d7f5aa0f29e467168b,Group_FJ,0,56f876e6eea5aae750f1c8745f8ad6ce1d6433030fbd1b2a5249925c62907a59,2298.3637430667877,False,keypress,testRsp,303,[],choice-response,Ba,618efaee23d7c4bb8420b7c8,late_pa5,3458,260,maintaskTrials
608073d7f5aa0f29e467168b,Group_FJ,0,56f876e6eea5aae750f1c8745f8ad6ce1d6433030fbd1b2a5249925c62907a59,2298.3637430667877,False,keypress,testRsp,129,[],choice-response,Pa,618efaee23d7c4bb8420b7c8,ontime_pa1,3281,261,maintaskTrials
608073d7f5aa0f29e467168b,Group_FJ,0,56f876e6eea5aae750f1c8745f8ad6ce1d6433030fbd1b2a5249925c62907a59,2298.3637430667877,False,keypress,testRsp,292,[],choice-response,Ba,618efaee23d7c4bb8420b7c8,ontime_pa6,3375,262,maintaskTrials
608073d7f5aa0f29e467168b,Group_FJ,0,56f876e6eea5aae750f1c8745f8ad6ce1d6433030fbd1b2a5249925c62907a59,2298.3637430667877,False,keypress,testRsp,355,[],choice-response,Pa,618efaee23d7c4bb8420b7c8,ontime_pa2,3772,263,maintaskTrials
608073d7f5aa0f29e467168b,Group_FJ,0,56f876e6eea5aae750f1c8745f8ad6ce1d6433030fbd1b2a5249925c62907a59,2298.3637430667877,False,keypress,testRsp,233,[],choice-response,Ba,618efaee23d7c4bb8420b7c8,late_pa7,3284,264,maintaskTrials
608073d7f5aa0f29e467168b,Group_FJ,0,56f876e6eea5aae750f1c8745f8ad6ce1d6433030fbd1b2a5249925c62907a59,2298.3637430667877,False,keypress,testRsp,285,[],choice-response,Ba,618efaee23d7c4bb8420b7c8,ontime_pa7,3349,265,maintaskTrials
608073d7f5aa0f29e467168b,Group_FJ,0,56f876e6eea5aae750f1c8745f8ad6ce1d6433030fbd1b2a5249925c62907a59,2298.3637430667877,False,keypress,testRsp,442,[],choice-response,Ba,618efaee23d7c4bb8420b7c8,late_pa8,3731,266,maintaskTrials
608073d7f5aa0f29e467168b,Group_FJ,0,56f876e6eea5aae750f1c8745f8ad6ce1d6433030fbd1b2a5249925c62907a59,2298.3637430667877,False,keypress,testRsp,341,[],choice-response,Ba,618efaee23d7c4bb8420b7c8,early_pa7,3408,267,maintaskTrials
608073d7f5aa0f29e467168b,Group_FJ,0,56f876e6eea5aae750f1c8745f8ad6ce1d6433030fbd1b2a5249925c62907a59,2298.3637430667877,False,keypress,testRsp,187,[],choice-response,Pa,618efaee23d7c4bb8420b7c8,early_pa3,3341,268,maintaskTrials
608073d7f5aa0f29e467168b,Group_FJ,0,56f876e6eea5aae750f1c8745f8ad6ce1d6433030fbd1b2a5249925c62907a59,2298.3637430667877,True,keypress,cat_catchRsp,6535,['Cat meowing'],choice-response,Cat meowing,618efaee23d7c4bb8420b7c8,cat_meowing,9480,269,Catch_cat
608073d7f5aa0f29e467168b,Group_FJ,0,56f876e6eea5aae750f1c8745f8ad6ce1d6433030fbd1b2a5249925c62907a59,2298.3637430667877,False,keypress,testRsp,818,[],choice-response,Pa,618efaee23d7c4bb8420b7c8,late_pa3,4115,270,maintaskTrials
608073d7f5aa0f29e467168b,Group_FJ,0,56f876e6eea5aae750f1c8745f8ad6ce1d6433030fbd1b2a5249925c62907a59,2298.3637430667877,False,keypress,testRsp,833,[],choice-response,Pa,618efaee23d7c4bb8420b7c8,ontime_pa4,4144,271,maintaskTrials
608073d7f5aa0f29e467168b,Group_FJ,0,56f876e6eea5aae750f1c8745f8ad6ce1d6433030fbd1b2a5249925c62907a59,2298.3637430667877,False,keypress,testRsp,454,[],choice-response,Pa,618efaee23d7c4bb8420b7c8,early_pa4,3696,272,maintaskTrials
608073d7f5aa0f29e467168b,Group_FJ,0,56f876e6eea5aae750f1c8745f8ad6ce1d6433030fbd1b2a5249925c62907a59,2298.3637430667877,False,keypress,testRsp,497,[],choice-response,Pa,618efaee23d7c4bb8420b7c8,late_pa4,3579,273,maintaskTrials
608073d7f5aa0f29e467168b,Group_FJ,0,56f876e6eea5aae750f1c8745f8ad6ce1d6433030fbd1b2a5249925c62907a59,2298.3637430667877,False,keypress,testRsp,341,[],choice-response,Pa,618efaee23d7c4bb8420b7c8,late_pa4,3275,274,maintaskTrials
608073d7f5aa0f29e467168b,Group_FJ,0,56f876e6eea5aae750f1c8745f8ad6ce1d6433030fbd1b2a5249925c62907a59,2298.3637430667877,False,keypress,testRsp,474,[],choice-response,Ba,618efaee23d7c4bb8420b7c8,ontime_pa7,3744,275,maintaskTrials
608073d7f5aa0f29e467168b,Group_FJ,0,56f876e6eea5aae750f1c8745f8ad6ce1d6433030fbd1b2a5249925c62907a59,2298.3637430667877,False,keypress,testRsp,201,[],choice-response,Pa,618efaee23d7c4bb8420b7c8,late_pa2,3277,276,maintaskTrials
608073d7f5aa0f29e467168b,Group_FJ,0,56f876e6eea5aae750f1c8745f8ad6ce1d6433030fbd1b2a5249925c62907a59,2298.3637430667877,False,keypress,testRsp,385,[],choice-response,Pa,618efaee23d7c4bb8420b7c8,late_pa3,3480,277,maintaskTrials
608073d7f5aa0f29e467168b,Group_FJ,0,56f876e6eea5aae750f1c8745f8ad6ce1d6433030fbd1b2a5249925c62907a59,2298.3637430667877,False,keypress,testRsp,182,[],choice-response,Pa,618efaee23d7c4bb8420b7c8,ontime_pa2,3289,278,maintaskTrials
608073d7f5aa0f29e467168b,Group_FJ,0,56f876e6eea5aae750f1c8745f8ad6ce1d6433030fbd1b2a5249925c62907a59,2298.3637430667877,False,keypress,testRsp,508,[],choice-response,Pa,618efaee23d7c4bb8420b7c8,early_pa1,3599,279,maintaskTrials
608073d7f5aa0f29e467168b,Group_FJ,0,56f876e6eea5aae750f1c8745f8ad6ce1d6433030fbd1b2a5249925c62907a59,2298.3637430667877,False,keypress,testRsp,158,[],choice-response,Ba,618efaee23d7c4bb8420b7c8,ontime_pa5,3420,280,maintaskTrials
608073d7f5aa0f29e467168b,Group_FJ,0,56f876e6eea5aae750f1c8745f8ad6ce1d6433030fbd1b2a5249925c62907a59,2298.3637430667877,False,keypress,testRsp,446,[],choice-response,Ba,618efaee23d7c4bb8420b7c8,early_pa6,3641,281,maintaskTrials
608073d7f5aa0f29e467168b,Group_FJ,0,56f876e6eea5aae750f1c8745f8ad6ce1d6433030fbd1b2a5249925c62907a59,2298.3637430667877,False,keypress,testRsp,382,[],choice-response,Ba,618efaee23d7c4bb8420b7c8,late_pa6,3769,282,maintaskTrials
608073d7f5aa0f29e467168b,Group_FJ,0,56f876e6eea5aae750f1c8745f8ad6ce1d6433030fbd1b2a5249925c62907a59,2298.3637430667877,False,keypress,testRsp,333,[],choice-response,Ba,618efaee23d7c4bb8420b7c8,ontime_pa8,3543,283,maintaskTrials
608073d7f5aa0f29e467168b,Group_FJ,0,56f876e6eea5aae750f1c8745f8ad6ce1d6433030fbd1b2a5249925c62907a59,2298.3637430667877,False,keypress,testRsp,175,[],choice-response,Ba,618efaee23d7c4bb8420b7c8,late_pa8,3238,284,maintaskTrials
608073d7f5aa0f29e467168b,Group_FJ,0,56f876e6eea5aae750f1c8745f8ad6ce1d6433030fbd1b2a5249925c62907a59,2298.3637430667877,False,keypress,testRsp,128,[],choice-response,Pa,618efaee23d7c4bb8420b7c8,ontime_pa1,3368,285,maintaskTrials
608073d7f5aa0f29e467168b,Group_FJ,0,56f876e6eea5aae750f1c8745f8ad6ce1d6433030fbd1b2a5249925c62907a59,2298.3637430667877,False,keypress,testRsp,102,[],choice-response,Pa,618efaee23d7c4bb8420b7c8,late_pa1,3227,286,maintaskTrials
608073d7f5aa0f29e467168b,Group_FJ,0,56f876e6eea5aae750f1c8745f8ad6ce1d6433030fbd1b2a5249925c62907a59,2298.3637430667877,False,keypress,testRsp,152,[],choice-response,Ba,618efaee23d7c4bb8420b7c8,ontime_pa6,3236,287,maintaskTrials
608073d7f5aa0f29e467168b,Group_FJ,0,56f876e6eea5aae750f1c8745f8ad6ce1d6433030fbd1b2a5249925c62907a59,2298.3637430667877,False,keypress,testRsp,530,[],choice-response,Ba,618efaee23d7c4bb8420b7c8,late_pa5,3673,288,maintaskTrials
608073d7f5aa0f29e467168b,Group_FJ,0,56f876e6eea5aae750f1c8745f8ad6ce1d6433030fbd1b2a5249925c62907a59,2298.3637430667877,False,keypress,testRsp,106,[],choice-response,Pa,618efaee23d7c4bb8420b7c8,early_pa4,3349,289,maintaskTrials
608073d7f5aa0f29e467168b,Group_FJ,0,56f876e6eea5aae750f1c8745f8ad6ce1d6433030fbd1b2a5249925c62907a59,2298.3637430667877,True,keypress,cat_catchRsp,1379,['Cat meowing'],choice-response,Cat meowing,618efaee23d7c4bb8420b7c8,cat_meowing,4154,290,Catch_cat
608073d7f5aa0f29e467168b,Group_FJ,0,56f876e6eea5aae750f1c8745f8ad6ce1d6433030fbd1b2a5249925c62907a59,2298.3637430667877,False,keypress,testRsp,344,[],choice-response,Ba,618efaee23d7c4bb8420b7c8,late_pa7,3396,291,maintaskTrials
608073d7f5aa0f29e467168b,Group_FJ,0,56f876e6eea5aae750f1c8745f8ad6ce1d6433030fbd1b2a5249925c62907a59,2298.3637430667877,False,keypress,testRsp,250,[],choice-response,Pa,618efaee23d7c4bb8420b7c8,ontime_pa3,3642,292,maintaskTrials
608073d7f5aa0f29e467168b,Group_FJ,0,56f876e6eea5aae750f1c8745f8ad6ce1d6433030fbd1b2a5249925c62907a59,2298.3637430667877,False,keypress,testRsp,186,[],choice-response,Pa,618efaee23d7c4bb8420b7c8,ontime_pa4,3407,293,maintaskTrials
608073d7f5aa0f29e467168b,Group_FJ,0,56f876e6eea5aae750f1c8745f8ad6ce1d6433030fbd1b2a5249925c62907a59,2298.3637430667877,False,keypress,testRsp,181,[],choice-response,Pa,618efaee23d7c4bb8420b7c8,early_pa7,3491,294,maintaskTrials
608073d7f5aa0f29e467168b,Group_FJ,0,56f876e6eea5aae750f1c8745f8ad6ce1d6433030fbd1b2a5249925c62907a59,2298.3637430667877,False,keypress,testRsp,272,[],choice-response,Pa,618efaee23d7c4bb8420b7c8,early_pa3,3382,295,maintaskTrials
608073d7f5aa0f29e467168b,Group_FJ,0,56f876e6eea5aae750f1c8745f8ad6ce1d6433030fbd1b2a5249925c62907a59,2298.3637430667877,False,keypress,testRsp,961,[],choice-response,Ba,618efaee23d7c4bb8420b7c8,early_pa5,4141,296,maintaskTrials
608073d7f5aa0f29e467168b,Group_FJ,0,56f876e6eea5aae750f1c8745f8ad6ce1d6433030fbd1b2a5249925c62907a59,2298.3637430667877,False,keypress,testRsp,96,[],choice-response,Pa,618efaee23d7c4bb8420b7c8,early_pa2,3645,297,maintaskTrials
608073d7f5aa0f29e467168b,Group_FJ,0,56f876e6eea5aae750f1c8745f8ad6ce1d6433030fbd1b2a5249925c62907a59,2298.3637430667877,False,keypress,testRsp,356,[],choice-response,Ba,618efaee23d7c4bb8420b7c8,early_pa8,3512,298,maintaskTrials
608073d7f5aa0f29e467168b,Group_FJ,0,56f876e6eea5aae750f1c8745f8ad6ce1d6433030fbd1b2a5249925c62907a59,2298.3637430667877,False,keypress,testRsp,369,[],choice-response,Pa,618efaee23d7c4bb8420b7c8,ontime_pa2,3584,299,maintaskTrials
608073d7f5aa0f29e467168b,Group_FJ,0,56f876e6eea5aae750f1c8745f8ad6ce1d6433030fbd1b2a5249925c62907a59,2298.3637430667877,False,keypress,testRsp,731,[],choice-response,Pa,618efaee23d7c4bb8420b7c8,ontime_pa6,3894,300,maintaskTrials
608073d7f5aa0f29e467168b,Group_FJ,0,56f876e6eea5aae750f1c8745f8ad6ce1d6433030fbd1b2a5249925c62907a59,2298.3637430667877,False,keypress,testRsp,481,[],choice-response,Pa,618efaee23d7c4bb8420b7c8,early_pa4,3600,301,maintaskTrials
608073d7f5aa0f29e467168b,Group_FJ,0,56f876e6eea5aae750f1c8745f8ad6ce1d6433030fbd1b2a5249925c62907a59,2298.3637430667877,False,keypress,testRsp,72,[],choice-response,Ba,618efaee23d7c4bb8420b7c8,late_pa8,3202,302,maintaskTrials
608073d7f5aa0f29e467168b,Group_FJ,0,56f876e6eea5aae750f1c8745f8ad6ce1d6433030fbd1b2a5249925c62907a59,2298.3637430667877,False,keypress,testRsp,218,[],choice-response,Pa,618efaee23d7c4bb8420b7c8,ontime_pa3,3420,303,maintaskTrials
608073d7f5aa0f29e467168b,Group_FJ,0,56f876e6eea5aae750f1c8745f8ad6ce1d6433030fbd1b2a5249925c62907a59,2298.3637430667877,False,keypress,testRsp,477,[],choice-response,Pa,618efaee23d7c4bb8420b7c8,late_pa3,3688,304,maintaskTrials
608073d7f5aa0f29e467168b,Group_FJ,0,56f876e6eea5aae750f1c8745f8ad6ce1d6433030fbd1b2a5249925c62907a59,2298.3637430667877,False,keypress,testRsp,210,[],choice-response,Pa,618efaee23d7c4bb8420b7c8,early_pa5,3391,305,maintaskTrials
608073d7f5aa0f29e467168b,Group_FJ,0,56f876e6eea5aae750f1c8745f8ad6ce1d6433030fbd1b2a5249925c62907a59,2298.3637430667877,False,keypress,testRsp,577,[],choice-response,Pa,618efaee23d7c4bb8420b7c8,late_pa4,3662,306,maintaskTrials
608073d7f5aa0f29e467168b,Group_FJ,0,56f876e6eea5aae750f1c8745f8ad6ce1d6433030fbd1b2a5249925c62907a59,2298.3637430667877,False,keypress,testRsp,233,[],choice-response,Ba,618efaee23d7c4bb8420b7c8,late_pa6,3662,307,maintaskTrials
608073d7f5aa0f29e467168b,Group_FJ,0,56f876e6eea5aae750f1c8745f8ad6ce1d6433030fbd1b2a5249925c62907a59,2298.3637430667877,False,keypress,testRsp,542,[],choice-response,Ba,618efaee23d7c4bb8420b7c8,late_pa5,3842,308,maintaskTrials
608073d7f5aa0f29e467168b,Group_FJ,0,56f876e6eea5aae750f1c8745f8ad6ce1d6433030fbd1b2a5249925c62907a59,2298.3637430667877,False,keypress,testRsp,240,[],choice-response,Ba,618efaee23d7c4bb8420b7c8,early_pa6,3332,309,maintaskTrials
608073d7f5aa0f29e467168b,Group_FJ,0,56f876e6eea5aae750f1c8745f8ad6ce1d6433030fbd1b2a5249925c62907a59,2298.3637430667877,False,keypress,testRsp,308,[],choice-response,Pa,618efaee23d7c4bb8420b7c8,late_pa2,3444,310,maintaskTrials
608073d7f5aa0f29e467168b,Group_FJ,0,56f876e6eea5aae750f1c8745f8ad6ce1d6433030fbd1b2a5249925c62907a59,2298.3637430667877,True,keypress,cat_catchRsp,744,['Cat meowing'],choice-response,Cat meowing,618efaee23d7c4bb8420b7c8,cat_meowing,3685,311,Catch_cat
608073d7f5aa0f29e467168b,Group_FJ,0,56f876e6eea5aae750f1c8745f8ad6ce1d6433030fbd1b2a5249925c62907a59,2298.3637430667877,False,keypress,testRsp,470,[],choice-response,Ba,618efaee23d7c4bb8420b7c8,early_pa8,3517,312,maintaskTrials
608073d7f5aa0f29e467168b,Group_FJ,0,56f876e6eea5aae750f1c8745f8ad6ce1d6433030fbd1b2a5249925c62907a59,2298.3637430667877,False,keypress,testRsp,124,[],choice-response,Ba,618efaee23d7c4bb8420b7c8,late_pa7,3343,313,maintaskTrials
608073d7f5aa0f29e467168b,Group_FJ,0,56f876e6eea5aae750f1c8745f8ad6ce1d6433030fbd1b2a5249925c62907a59,2298.3637430667877,False,keypress,testRsp,291,[],choice-response,Pa,618efaee23d7c4bb8420b7c8,ontime_pa1,3466,314,maintaskTrials
608073d7f5aa0f29e467168b,Group_FJ,0,56f876e6eea5aae750f1c8745f8ad6ce1d6433030fbd1b2a5249925c62907a59,2298.3637430667877,False,keypress,testRsp,367,[],choice-response,Ba,618efaee23d7c4bb8420b7c8,ontime_pa5,3523,315,maintaskTrials
608073d7f5aa0f29e467168b,Group_FJ,0,56f876e6eea5aae750f1c8745f8ad6ce1d6433030fbd1b2a5249925c62907a59,2298.3637430667877,False,keypress,testRsp,500,[],choice-response,Ba,618efaee23d7c4bb8420b7c8,ontime_pa8,3824,316,maintaskTrials
608073d7f5aa0f29e467168b,Group_FJ,0,56f876e6eea5aae750f1c8745f8ad6ce1d6433030fbd1b2a5249925c62907a59,2298.3637430667877,False,keypress,testRsp,429,[],choice-response,Pa,618efaee23d7c4bb8420b7c8,late_pa1,3540,317,maintaskTrials
608073d7f5aa0f29e467168b,Group_FJ,0,56f876e6eea5aae750f1c8745f8ad6ce1d6433030fbd1b2a5249925c62907a59,2298.3637430667877,False,keypress,testRsp,158,[],choice-response,Pa,618efaee23d7c4bb8420b7c8,early_pa3,3389,318,maintaskTrials
608073d7f5aa0f29e467168b,Group_FJ,0,56f876e6eea5aae750f1c8745f8ad6ce1d6433030fbd1b2a5249925c62907a59,2298.3637430667877,False,keypress,testRsp,173,[],choice-response,Pa,618efaee23d7c4bb8420b7c8,early_pa2,3346,319,maintaskTrials
608073d7f5aa0f29e467168b,Group_FJ,0,56f876e6eea5aae750f1c8745f8ad6ce1d6433030fbd1b2a5249925c62907a59,2298.3637430667877,False,keypress,testRsp,290,[],choice-response,Ba,618efaee23d7c4bb8420b7c8,ontime_pa7,3369,320,maintaskTrials
608073d7f5aa0f29e467168b,Group_FJ,0,56f876e6eea5aae750f1c8745f8ad6ce1d6433030fbd1b2a5249925c62907a59,2298.3637430667877,False,keypress,testRsp,340,[],choice-response,Pa,618efaee23d7c4bb8420b7c8,ontime_pa4,3423,321,maintaskTrials
608073d7f5aa0f29e467168b,Group_FJ,0,56f876e6eea5aae750f1c8745f8ad6ce1d6433030fbd1b2a5249925c62907a59,2298.3637430667877,False,keypress,testRsp,346,[],choice-response,Pa,618efaee23d7c4bb8420b7c8,early_pa1,3600,322,maintaskTrials
608073d7f5aa0f29e467168b,Group_FJ,0,56f876e6eea5aae750f1c8745f8ad6ce1d6433030fbd1b2a5249925c62907a59,2298.3637430667877,False,keypress,testRsp,758,[],choice-response,Ba,618efaee23d7c4bb8420b7c8,early_pa7,3859,323,maintaskTrials
608073d7f5aa0f29e467168b,Group_FJ,0,56f876e6eea5aae750f1c8745f8ad6ce1d6433030fbd1b2a5249925c62907a59,2298.3637430667877,False,keypress,testRsp,763,[],choice-response,Pa,618efaee23d7c4bb8420b7c8,ontime_pa7,3876,324,maintaskTrials
608073d7f5aa0f29e467168b,Group_FJ,0,56f876e6eea5aae750f1c8745f8ad6ce1d6433030fbd1b2a5249925c62907a59,2298.3637430667877,False,keypress,testRsp,1643,[],choice-response,Ba,618efaee23d7c4bb8420b7c8,ontime_pa8,4911,325,maintaskTrials
608073d7f5aa0f29e467168b,Group_FJ,0,56f876e6eea5aae750f1c8745f8ad6ce1d6433030fbd1b2a5249925c62907a59,2298.3637430667877,False,keypress,testRsp,1296,[],choice-response,Pa,618efaee23d7c4bb8420b7c8,early_pa6,4385,326,maintaskTrials
608073d7f5aa0f29e467168b,Group_FJ,0,56f876e6eea5aae750f1c8745f8ad6ce1d6433030fbd1b2a5249925c62907a59,2298.3637430667877,False,keypress,testRsp,1445,[],choice-response,Pa,618efaee23d7c4bb8420b7c8,early_pa4,4538,327,maintaskTrials
608073d7f5aa0f29e467168b,Group_FJ,0,56f876e6eea5aae750f1c8745f8ad6ce1d6433030fbd1b2a5249925c62907a59,2298.3637430667877,False,keypress,testRsp,179,[],choice-response,Pa,618efaee23d7c4bb8420b7c8,late_pa2,3325,328,maintaskTrials
608073d7f5aa0f29e467168b,Group_FJ,0,56f876e6eea5aae750f1c8745f8ad6ce1d6433030fbd1b2a5249925c62907a59,2298.3637430667877,False,keypress,testRsp,700,[],choice-response,Ba,618efaee23d7c4bb8420b7c8,early_pa7,3896,329,maintaskTrials
608073d7f5aa0f29e467168b,Group_FJ,0,56f876e6eea5aae750f1c8745f8ad6ce1d6433030fbd1b2a5249925c62907a59,2298.3637430667877,False,keypress,testRsp,492,[],choice-response,Pa,618efaee23d7c4bb8420b7c8,ontime_pa1,3696,330,maintaskTrials
608073d7f5aa0f29e467168b,Group_FJ,0,56f876e6eea5aae750f1c8745f8ad6ce1d6433030fbd1b2a5249925c62907a59,2298.3637430667877,False,keypress,testRsp,241,[],choice-response,Pa,618efaee23d7c4bb8420b7c8,early_pa1,3487,331,maintaskTrials
608073d7f5aa0f29e467168b,Group_FJ,0,56f876e6eea5aae750f1c8745f8ad6ce1d6433030fbd1b2a5249925c62907a59,2298.3637430667877,True,keypress,cat_catchRsp,902,['Cat meowing'],choice-response,Cat meowing,618efaee23d7c4bb8420b7c8,cat_meowing,3651,332,Catch_cat
608073d7f5aa0f29e467168b,Group_FJ,0,56f876e6eea5aae750f1c8745f8ad6ce1d6433030fbd1b2a5249925c62907a59,2298.3637430667877,False,keypress,testRsp,1763,[],choice-response,Pa,618efaee23d7c4bb8420b7c8,late_pa3,4838,333,maintaskTrials
608073d7f5aa0f29e467168b,Group_FJ,0,56f876e6eea5aae750f1c8745f8ad6ce1d6433030fbd1b2a5249925c62907a59,2298.3637430667877,False,keypress,testRsp,508,[],choice-response,Ba,618efaee23d7c4bb8420b7c8,late_pa6,3595,334,maintaskTrials
608073d7f5aa0f29e467168b,Group_FJ,0,56f876e6eea5aae750f1c8745f8ad6ce1d6433030fbd1b2a5249925c62907a59,2298.3637430667877,False,keypress,testRsp,981,[],choice-response,Pa,618efaee23d7c4bb8420b7c8,early_pa2,4163,335,maintaskTrials
608073d7f5aa0f29e467168b,Group_FJ,0,56f876e6eea5aae750f1c8745f8ad6ce1d6433030fbd1b2a5249925c62907a59,2298.3637430667877,False,keypress,testRsp,3545,[],choice-response,Pa,618efaee23d7c4bb8420b7c8,ontime_pa3,6854,336,maintaskTrials
608073d7f5aa0f29e467168b,Group_FJ,0,56f876e6eea5aae750f1c8745f8ad6ce1d6433030fbd1b2a5249925c62907a59,2298.3637430667877,False,keypress,testRsp,287,[],choice-response,Pa,618efaee23d7c4bb8420b7c8,ontime_pa2,3378,337,maintaskTrials
608073d7f5aa0f29e467168b,Group_FJ,0,56f876e6eea5aae750f1c8745f8ad6ce1d6433030fbd1b2a5249925c62907a59,2298.3637430667877,False,keypress,testRsp,247,[],choice-response,Pa,618efaee23d7c4bb8420b7c8,early_pa3,3332,338,maintaskTrials
608073d7f5aa0f29e467168b,Group_FJ,0,56f876e6eea5aae750f1c8745f8ad6ce1d6433030fbd1b2a5249925c62907a59,2298.3637430667877,False,keypress,testRsp,202,[],choice-response,Pa,618efaee23d7c4bb8420b7c8,late_pa5,3505,339,maintaskTrials
608073d7f5aa0f29e467168b,Group_FJ,0,56f876e6eea5aae750f1c8745f8ad6ce1d6433030fbd1b2a5249925c62907a59,2298.3637430667877,False,keypress,testRsp,489,[],choice-response,Ba,618efaee23d7c4bb8420b7c8,late_pa8,3538,340,maintaskTrials
608073d7f5aa0f29e467168b,Group_FJ,0,56f876e6eea5aae750f1c8745f8ad6ce1d6433030fbd1b2a5249925c62907a59,2298.3637430667877,False,keypress,testRsp,343,[],choice-response,Ba,618efaee23d7c4bb8420b7c8,ontime_pa5,3429,341,maintaskTrials
608073d7f5aa0f29e467168b,Group_FJ,0,56f876e6eea5aae750f1c8745f8ad6ce1d6433030fbd1b2a5249925c62907a59,2298.3637430667877,False,keypress,testRsp,227,[],choice-response,Ba,618efaee23d7c4bb8420b7c8,early_pa8,3476,342,maintaskTrials
608073d7f5aa0f29e467168b,Group_FJ,0,56f876e6eea5aae750f1c8745f8ad6ce1d6433030fbd1b2a5249925c62907a59,2298.3637430667877,False,keypress,testRsp,366,[],choice-response,Pa,618efaee23d7c4bb8420b7c8,late_pa4,3513,343,maintaskTrials
608073d7f5aa0f29e467168b,Group_FJ,0,56f876e6eea5aae750f1c8745f8ad6ce1d6433030fbd1b2a5249925c62907a59,2298.3637430667877,False,keypress,testRsp,211,[],choice-response,Pa,618efaee23d7c4bb8420b7c8,early_pa5,3552,344,maintaskTrials
608073d7f5aa0f29e467168b,Group_FJ,0,56f876e6eea5aae750f1c8745f8ad6ce1d6433030fbd1b2a5249925c62907a59,2298.3637430667877,False,keypress,testRsp,154,[],choice-response,Pa,618efaee23d7c4bb8420b7c8,late_pa1,3439,345,maintaskTrials
608073d7f5aa0f29e467168b,Group_FJ,0,56f876e6eea5aae750f1c8745f8ad6ce1d6433030fbd1b2a5249925c62907a59,2298.3637430667877,False,keypress,testRsp,1551,[],choice-response,Pa,618efaee23d7c4bb8420b7c8,late_pa7,4623,346,maintaskTrials
608073d7f5aa0f29e467168b,Group_FJ,0,56f876e6eea5aae750f1c8745f8ad6ce1d6433030fbd1b2a5249925c62907a59,2298.3637430667877,False,keypress,testRsp,1107,[],choice-response,Ba,618efaee23d7c4bb8420b7c8,ontime_pa6,4327,347,maintaskTrials
608073d7f5aa0f29e467168b,Group_FJ,0,56f876e6eea5aae750f1c8745f8ad6ce1d6433030fbd1b2a5249925c62907a59,2298.3637430667877,False,keypress,testRsp,815,[],choice-response,Pa,618efaee23d7c4bb8420b7c8,ontime_pa4,3896,348,maintaskTrials
608073d7f5aa0f29e467168b,Group_FJ,0,56f876e6eea5aae750f1c8745f8ad6ce1d6433030fbd1b2a5249925c62907a59,2298.3637430667877,False,keypress,testRsp,988,[],choice-response,Ba,618efaee23d7c4bb8420b7c8,early_pa8,4168,349,maintaskTrials
608073d7f5aa0f29e467168b,Group_FJ,0,56f876e6eea5aae750f1c8745f8ad6ce1d6433030fbd1b2a5249925c62907a59,2298.3637430667877,False,keypress,testRsp,245,[],choice-response,Pa,618efaee23d7c4bb8420b7c8,late_pa2,3365,350,maintaskTrials
608073d7f5aa0f29e467168b,Group_FJ,0,56f876e6eea5aae750f1c8745f8ad6ce1d6433030fbd1b2a5249925c62907a59,2298.3637430667877,False,keypress,testRsp,958,[],choice-response,Ba,618efaee23d7c4bb8420b7c8,ontime_pa7,4064,351,maintaskTrials
608073d7f5aa0f29e467168b,Group_FJ,0,56f876e6eea5aae750f1c8745f8ad6ce1d6433030fbd1b2a5249925c62907a59,2298.3637430667877,False,keypress,testRsp,1702,[],choice-response,Ba,618efaee23d7c4bb8420b7c8,late_pa8,4752,352,maintaskTrials
608073d7f5aa0f29e467168b,Group_FJ,0,56f876e6eea5aae750f1c8745f8ad6ce1d6433030fbd1b2a5249925c62907a59,2298.3637430667877,True,keypress,cat_catchRsp,990,['Cat meowing'],choice-response,Cat meowing,618efaee23d7c4bb8420b7c8,cat_meowing,3781,353,Catch_cat
608073d7f5aa0f29e467168b,Group_FJ,0,56f876e6eea5aae750f1c8745f8ad6ce1d6433030fbd1b2a5249925c62907a59,2298.3637430667877,False,keypress,testRsp,609,[],choice-response,Pa,618efaee23d7c4bb8420b7c8,late_pa4,3689,354,maintaskTrials
608073d7f5aa0f29e467168b,Group_FJ,0,56f876e6eea5aae750f1c8745f8ad6ce1d6433030fbd1b2a5249925c62907a59,2298.3637430667877,False,keypress,testRsp,484,[],choice-response,Pa,618efaee23d7c4bb8420b7c8,early_pa4,3650,355,maintaskTrials
608073d7f5aa0f29e467168b,Group_FJ,0,56f876e6eea5aae750f1c8745f8ad6ce1d6433030fbd1b2a5249925c62907a59,2298.3637430667877,False,keypress,testRsp,236,[],choice-response,Pa,618efaee23d7c4bb8420b7c8,early_pa3,3524,356,maintaskTrials
608073d7f5aa0f29e467168b,Group_FJ,0,56f876e6eea5aae750f1c8745f8ad6ce1d6433030fbd1b2a5249925c62907a59,2298.3637430667877,False,keypress,testRsp,228,[],choice-response,Pa,618efaee23d7c4bb8420b7c8,ontime_pa1,3364,357,maintaskTrials
608073d7f5aa0f29e467168b,Group_FJ,0,56f876e6eea5aae750f1c8745f8ad6ce1d6433030fbd1b2a5249925c62907a59,2298.3637430667877,False,keypress,testRsp,205,[],choice-response,Pa,618efaee23d7c4bb8420b7c8,ontime_pa5,3352,358,maintaskTrials
608073d7f5aa0f29e467168b,Group_FJ,0,56f876e6eea5aae750f1c8745f8ad6ce1d6433030fbd1b2a5249925c62907a59,2298.3637430667877,False,keypress,testRsp,217,[],choice-response,Pa,618efaee23d7c4bb8420b7c8,ontime_pa6,3284,359,maintaskTrials
608073d7f5aa0f29e467168b,Group_FJ,0,56f876e6eea5aae750f1c8745f8ad6ce1d6433030fbd1b2a5249925c62907a59,2298.3637430667877,False,keypress,testRsp,536,[],choice-response,Pa,618efaee23d7c4bb8420b7c8,early_pa5,3791,360,maintaskTrials
608073d7f5aa0f29e467168b,Group_FJ,0,56f876e6eea5aae750f1c8745f8ad6ce1d6433030fbd1b2a5249925c62907a59,2298.3637430667877,False,keypress,testRsp,685,[],choice-response,Ba,618efaee23d7c4bb8420b7c8,late_pa6,3800,361,maintaskTrials
608073d7f5aa0f29e467168b,Group_FJ,0,56f876e6eea5aae750f1c8745f8ad6ce1d6433030fbd1b2a5249925c62907a59,2298.3637430667877,False,keypress,testRsp,901,[],choice-response,Pa,618efaee23d7c4bb8420b7c8,ontime_pa3,4100,362,maintaskTrials
608073d7f5aa0f29e467168b,Group_FJ,0,56f876e6eea5aae750f1c8745f8ad6ce1d6433030fbd1b2a5249925c62907a59,2298.3637430667877,False,keypress,testRsp,1065,[],choice-response,Pa,618efaee23d7c4bb8420b7c8,late_pa5,4219,363,maintaskTrials
608073d7f5aa0f29e467168b,Group_FJ,0,56f876e6eea5aae750f1c8745f8ad6ce1d6433030fbd1b2a5249925c62907a59,2298.3637430667877,False,keypress,testRsp,367,[],choice-response,Pa,618efaee23d7c4bb8420b7c8,late_pa1,3576,364,maintaskTrials
608073d7f5aa0f29e467168b,Group_FJ,0,56f876e6eea5aae750f1c8745f8ad6ce1d6433030fbd1b2a5249925c62907a59,2298.3637430667877,False,keypress,testRsp,441,[],choice-response,Pa,618efaee23d7c4bb8420b7c8,early_pa1,3542,365,maintaskTrials
608073d7f5aa0f29e467168b,Group_FJ,0,56f876e6eea5aae750f1c8745f8ad6ce1d6433030fbd1b2a5249925c62907a59,2298.3637430667877,False,keypress,testRsp,152,[],choice-response,Pa,618efaee23d7c4bb8420b7c8,ontime_pa2,3420,366,maintaskTrials
608073d7f5aa0f29e467168b,Group_FJ,0,56f876e6eea5aae750f1c8745f8ad6ce1d6433030fbd1b2a5249925c62907a59,2298.3637430667877,False,keypress,testRsp,144,[],choice-response,Pa,618efaee23d7c4bb8420b7c8,late_pa3,3221,367,maintaskTrials
608073d7f5aa0f29e467168b,Group_FJ,0,56f876e6eea5aae750f1c8745f8ad6ce1d6433030fbd1b2a5249925c62907a59,2298.3637430667877,False,keypress,testRsp,656,[],choice-response,Ba,618efaee23d7c4bb8420b7c8,late_pa7,3854,368,maintaskTrials
608073d7f5aa0f29e467168b,Group_FJ,0,56f876e6eea5aae750f1c8745f8ad6ce1d6433030fbd1b2a5249925c62907a59,2298.3637430667877,False,keypress,testRsp,406,[],choice-response,Ba,618efaee23d7c4bb8420b7c8,ontime_pa8,3531,369,maintaskTrials
608073d7f5aa0f29e467168b,Group_FJ,0,56f876e6eea5aae750f1c8745f8ad6ce1d6433030fbd1b2a5249925c62907a59,2298.3637430667877,False,keypress,testRsp,657,[],choice-response,Ba,618efaee23d7c4bb8420b7c8,ontime_pa4,3780,370,maintaskTrials
608073d7f5aa0f29e467168b,Group_FJ,0,56f876e6eea5aae750f1c8745f8ad6ce1d6433030fbd1b2a5249925c62907a59,2298.3637430667877,False,keypress,testRsp,436,[],choice-response,Pa,618efaee23d7c4bb8420b7c8,early_pa2,3811,371,maintaskTrials
608073d7f5aa0f29e467168b,Group_FJ,0,56f876e6eea5aae750f1c8745f8ad6ce1d6433030fbd1b2a5249925c62907a59,2298.3637430667877,False,keypress,testRsp,796,[],choice-response,Ba,618efaee23d7c4bb8420b7c8,early_pa7,4013,372,maintaskTrials
608073d7f5aa0f29e467168b,Group_FJ,0,56f876e6eea5aae750f1c8745f8ad6ce1d6433030fbd1b2a5249925c62907a59,2298.3637430667877,False,keypress,testRsp,594,[],choice-response,Ba,618efaee23d7c4bb8420b7c8,early_pa6,3893,373,maintaskTrials
608073d7f5aa0f29e467168b,Group_FJ,0,56f876e6eea5aae750f1c8745f8ad6ce1d6433030fbd1b2a5249925c62907a59,2298.3637430667877,True,keypress,cat_catchRsp,794,['Cat meowing'],choice-response,Cat meowing,618efaee23d7c4bb8420b7c8,cat_meowing,3556,374,Catch_cat
608073d7f5aa0f29e467168b,Group_FJ,0,56f876e6eea5aae750f1c8745f8ad6ce1d6433030fbd1b2a5249925c62907a59,2298.3637430667877,False,keypress,testRsp,618,[],choice-response,Pa,618efaee23d7c4bb8420b7c8,late_pa2,3775,375,maintaskTrials
608073d7f5aa0f29e467168b,Group_FJ,0,56f876e6eea5aae750f1c8745f8ad6ce1d6433030fbd1b2a5249925c62907a59,2298.3637430667877,False,keypress,testRsp,3328,[],choice-response,Pa,618efaee23d7c4bb8420b7c8,early_pa8,6420,376,maintaskTrials
608073d7f5aa0f29e467168b,Group_FJ,0,56f876e6eea5aae750f1c8745f8ad6ce1d6433030fbd1b2a5249925c62907a59,2298.3637430667877,False,keypress,testRsp,234,[],choice-response,Pa,618efaee23d7c4bb8420b7c8,ontime_pa2,3676,377,maintaskTrials
608073d7f5aa0f29e467168b,Group_FJ,0,56f876e6eea5aae750f1c8745f8ad6ce1d6433030fbd1b2a5249925c62907a59,2298.3637430667877,False,keypress,testRsp,197,[],choice-response,Pa,618efaee23d7c4bb8420b7c8,early_pa5,3474,378,maintaskTrials
608073d7f5aa0f29e467168b,Group_FJ,0,56f876e6eea5aae750f1c8745f8ad6ce1d6433030fbd1b2a5249925c62907a59,2298.3637430667877,False,keypress,testRsp,289,[],choice-response,Ba,618efaee23d7c4bb8420b7c8,ontime_pa6,3365,379,maintaskTrials
608073d7f5aa0f29e467168b,Group_FJ,0,56f876e6eea5aae750f1c8745f8ad6ce1d6433030fbd1b2a5249925c62907a59,2298.3637430667877,False,keypress,testRsp,621,[],choice-response,Pa,618efaee23d7c4bb8420b7c8,ontime_pa4,3886,380,maintaskTrials
608073d7f5aa0f29e467168b,Group_FJ,0,56f876e6eea5aae750f1c8745f8ad6ce1d6433030fbd1b2a5249925c62907a59,2298.3637430667877,False,keypress,testRsp,137,[],choice-response,Ba,618efaee23d7c4bb8420b7c8,ontime_pa7,3202,381,maintaskTrials
608073d7f5aa0f29e467168b,Group_FJ,0,56f876e6eea5aae750f1c8745f8ad6ce1d6433030fbd1b2a5249925c62907a59,2298.3637430667877,False,keypress,testRsp,452,[],choice-response,Ba,618efaee23d7c4bb8420b7c8,early_pa6,3804,382,maintaskTrials
608073d7f5aa0f29e467168b,Group_FJ,0,56f876e6eea5aae750f1c8745f8ad6ce1d6433030fbd1b2a5249925c62907a59,2298.3637430667877,False,keypress,testRsp,1887,[],choice-response,Pa,618efaee23d7c4bb8420b7c8,late_pa6,5089,383,maintaskTrials
608073d7f5aa0f29e467168b,Group_FJ,0,56f876e6eea5aae750f1c8745f8ad6ce1d6433030fbd1b2a5249925c62907a59,2298.3637430667877,False,keypress,testRsp,544,[],choice-response,Pa,618efaee23d7c4bb8420b7c8,late_pa1,3731,384,maintaskTrials
608073d7f5aa0f29e467168b,Group_FJ,0,56f876e6eea5aae750f1c8745f8ad6ce1d6433030fbd1b2a5249925c62907a59,2298.3637430667877,False,keypress,testRsp,444,[],choice-response,Pa,618efaee23d7c4bb8420b7c8,ontime_pa1,3688,385,maintaskTrials
608073d7f5aa0f29e467168b,Group_FJ,0,56f876e6eea5aae750f1c8745f8ad6ce1d6433030fbd1b2a5249925c62907a59,2298.3637430667877,False,keypress,testRsp,832,[],choice-response,Ba,618efaee23d7c4bb8420b7c8,ontime_pa8,4140,386,maintaskTrials
608073d7f5aa0f29e467168b,Group_FJ,0,56f876e6eea5aae750f1c8745f8ad6ce1d6433030fbd1b2a5249925c62907a59,2298.3637430667877,False,keypress,testRsp,925,[],choice-response,Ba,618efaee23d7c4bb8420b7c8,late_pa8,4082,387,maintaskTrials
608073d7f5aa0f29e467168b,Group_FJ,0,56f876e6eea5aae750f1c8745f8ad6ce1d6433030fbd1b2a5249925c62907a59,2298.3637430667877,False,keypress,testRsp,271,[],choice-response,Pa,618efaee23d7c4bb8420b7c8,late_pa3,3400,388,maintaskTrials
608073d7f5aa0f29e467168b,Group_FJ,0,56f876e6eea5aae750f1c8745f8ad6ce1d6433030fbd1b2a5249925c62907a59,2298.3637430667877,False,keypress,testRsp,310,[],choice-response,Pa,618efaee23d7c4bb8420b7c8,early_pa1,3413,389,maintaskTrials
608073d7f5aa0f29e467168b,Group_FJ,0,56f876e6eea5aae750f1c8745f8ad6ce1d6433030fbd1b2a5249925c62907a59,2298.3637430667877,False,keypress,testRsp,736,[],choice-response,Pa,618efaee23d7c4bb8420b7c8,early_pa4,3959,390,maintaskTrials
608073d7f5aa0f29e467168b,Group_FJ,0,56f876e6eea5aae750f1c8745f8ad6ce1d6433030fbd1b2a5249925c62907a59,2298.3637430667877,False,keypress,testRsp,341,[],choice-response,Pa,618efaee23d7c4bb8420b7c8,early_pa2,3434,391,maintaskTrials
608073d7f5aa0f29e467168b,Group_FJ,0,56f876e6eea5aae750f1c8745f8ad6ce1d6433030fbd1b2a5249925c62907a59,2298.3637430667877,False,keypress,testRsp,330,[],choice-response,Pa,618efaee23d7c4bb8420b7c8,ontime_pa5,3556,392,maintaskTrials
608073d7f5aa0f29e467168b,Group_FJ,0,56f876e6eea5aae750f1c8745f8ad6ce1d6433030fbd1b2a5249925c62907a59,2298.3637430667877,False,keypress,testRsp,883,[],choice-response,Pa,618efaee23d7c4bb8420b7c8,late_pa4,4043,393,maintaskTrials
608073d7f5aa0f29e467168b,Group_FJ,0,56f876e6eea5aae750f1c8745f8ad6ce1d6433030fbd1b2a5249925c62907a59,2298.3637430667877,False,keypress,testRsp,25,[],choice-response,Pa,618efaee23d7c4bb8420b7c8,late_pa5,3156,394,maintaskTrials
608073d7f5aa0f29e467168b,Group_FJ,0,56f876e6eea5aae750f1c8745f8ad6ce1d6433030fbd1b2a5249925c62907a59,2298.3637430667877,True,keypress,cat_catchRsp,759,['Cat meowing'],choice-response,Cat meowing,618efaee23d7c4bb8420b7c8,cat_meowing,3532,395,Catch_cat
608073d7f5aa0f29e467168b,Group_FJ,0,56f876e6eea5aae750f1c8745f8ad6ce1d6433030fbd1b2a5249925c62907a59,2298.3637430667877,False,keypress,testRsp,414,[],choice-response,Ba,618efaee23d7c4bb8420b7c8,early_pa7,3463,396,maintaskTrials
608073d7f5aa0f29e467168b,Group_FJ,0,56f876e6eea5aae750f1c8745f8ad6ce1d6433030fbd1b2a5249925c62907a59,2298.3637430667877,False,keypress,testRsp,399,[],choice-response,Pa,618efaee23d7c4bb8420b7c8,early_pa3,3516,397,maintaskTrials
608073d7f5aa0f29e467168b,Group_FJ,0,56f876e6eea5aae750f1c8745f8ad6ce1d6433030fbd1b2a5249925c62907a59,2298.3637430667877,False,keypress,testRsp,261,[],choice-response,Ba,618efaee23d7c4bb8420b7c8,late_pa7,3375,398,maintaskTrials
608073d7f5aa0f29e467168b,Group_FJ,0,56f876e6eea5aae750f1c8745f8ad6ce1d6433030fbd1b2a5249925c62907a59,2298.3637430667877,False,keypress,testRsp,465,[],choice-response,Pa,618efaee23d7c4bb8420b7c8,ontime_pa3,3557,399,maintaskTrials
608073d7f5aa0f29e467168b,Group_FJ,0,56f876e6eea5aae750f1c8745f8ad6ce1d6433030fbd1b2a5249925c62907a59,2298.3637430667877,False,keypress,testRsp,556,[],choice-response,Ba,618efaee23d7c4bb8420b7c8,ontime_pa7,3747,400,maintaskTrials
608073d7f5aa0f29e467168b,Group_FJ,0,56f876e6eea5aae750f1c8745f8ad6ce1d6433030fbd1b2a5249925c62907a59,2298.3637430667877,False,keypress,testRsp,126,[],choice-response,Pa,618efaee23d7c4bb8420b7c8,ontime_pa2,3268,401,maintaskTrials
608073d7f5aa0f29e467168b,Group_FJ,0,56f876e6eea5aae750f1c8745f8ad6ce1d6433030fbd1b2a5249925c62907a59,2298.3637430667877,False,keypress,testRsp,131,[],choice-response,Ba,618efaee23d7c4bb8420b7c8,ontime_pa6,3345,402,maintaskTrials
608073d7f5aa0f29e467168b,Group_FJ,0,56f876e6eea5aae750f1c8745f8ad6ce1d6433030fbd1b2a5249925c62907a59,2298.3637430667877,False,keypress,testRsp,217,[],choice-response,Ba,618efaee23d7c4bb8420b7c8,early_pa8,3284,403,maintaskTrials
608073d7f5aa0f29e467168b,Group_FJ,0,56f876e6eea5aae750f1c8745f8ad6ce1d6433030fbd1b2a5249925c62907a59,2298.3637430667877,False,keypress,testRsp,121,[],choice-response,Pa,618efaee23d7c4bb8420b7c8,late_pa1,3226,404,maintaskTrials
608073d7f5aa0f29e467168b,Group_FJ,0,56f876e6eea5aae750f1c8745f8ad6ce1d6433030fbd1b2a5249925c62907a59,2298.3637430667877,False,keypress,testRsp,282,[],choice-response,Ba,618efaee23d7c4bb8420b7c8,late_pa7,3340,405,maintaskTrials
608073d7f5aa0f29e467168b,Group_FJ,0,56f876e6eea5aae750f1c8745f8ad6ce1d6433030fbd1b2a5249925c62907a59,2298.3637430667877,False,keypress,testRsp,160,[],choice-response,Pa,618efaee23d7c4bb8420b7c8,late_pa3,3394,406,maintaskTrials
608073d7f5aa0f29e467168b,Group_FJ,0,56f876e6eea5aae750f1c8745f8ad6ce1d6433030fbd1b2a5249925c62907a59,2298.3637430667877,False,keypress,testRsp,91,[],choice-response,Ba,618efaee23d7c4bb8420b7c8,late_pa5,3173,407,maintaskTrials
608073d7f5aa0f29e467168b,Group_FJ,0,56f876e6eea5aae750f1c8745f8ad6ce1d6433030fbd1b2a5249925c62907a59,2298.3637430667877,False,keypress,testRsp,332,[],choice-response,Ba,618efaee23d7c4bb8420b7c8,late_pa4,3780,408,maintaskTrials
608073d7f5aa0f29e467168b,Group_FJ,0,56f876e6eea5aae750f1c8745f8ad6ce1d6433030fbd1b2a5249925c62907a59,2298.3637430667877,False,keypress,testRsp,2408,[],choice-response,Ba,618efaee23d7c4bb8420b7c8,late_pa8,5491,409,maintaskTrials
608073d7f5aa0f29e467168b,Group_FJ,0,56f876e6eea5aae750f1c8745f8ad6ce1d6433030fbd1b2a5249925c62907a59,2298.3637430667877,False,keypress,testRsp,1664,[],choice-response,Pa,618efaee23d7c4bb8420b7c8,early_pa6,4931,410,maintaskTrials
608073d7f5aa0f29e467168b,Group_FJ,0,56f876e6eea5aae750f1c8745f8ad6ce1d6433030fbd1b2a5249925c62907a59,2298.3637430667877,False,keypress,testRsp,2280,[],choice-response,Ba,618efaee23d7c4bb8420b7c8,early_pa1,5376,411,maintaskTrials
608073d7f5aa0f29e467168b,Group_FJ,0,56f876e6eea5aae750f1c8745f8ad6ce1d6433030fbd1b2a5249925c62907a59,2298.3637430667877,False,keypress,testRsp,236,[],choice-response,Pa,618efaee23d7c4bb8420b7c8,early_pa2,3469,412,maintaskTrials
608073d7f5aa0f29e467168b,Group_FJ,0,56f876e6eea5aae750f1c8745f8ad6ce1d6433030fbd1b2a5249925c62907a59,2298.3637430667877,False,keypress,testRsp,289,[],choice-response,Ba,618efaee23d7c4bb8420b7c8,early_pa5,3376,413,maintaskTrials
608073d7f5aa0f29e467168b,Group_FJ,0,56f876e6eea5aae750f1c8745f8ad6ce1d6433030fbd1b2a5249925c62907a59,2298.3637430667877,False,keypress,testRsp,2244,[],choice-response,Pa,618efaee23d7c4bb8420b7c8,early_pa3,5371,414,maintaskTrials
608073d7f5aa0f29e467168b,Group_FJ,0,56f876e6eea5aae750f1c8745f8ad6ce1d6433030fbd1b2a5249925c62907a59,2298.3637430667877,False,keypress,testRsp,876,[],choice-response,Pa,618efaee23d7c4bb8420b7c8,late_pa2,3968,415,maintaskTrials
608073d7f5aa0f29e467168b,Group_FJ,0,56f876e6eea5aae750f1c8745f8ad6ce1d6433030fbd1b2a5249925c62907a59,2298.3637430667877,False,keypress,testRsp,182,[],choice-response,Ba,618efaee23d7c4bb8420b7c8,ontime_pa8,3283,416,maintaskTrials
608073d7f5aa0f29e467168b,Group_FJ,0,56f876e6eea5aae750f1c8745f8ad6ce1d6433030fbd1b2a5249925c62907a59,2298.3637430667877,False,keypress,testRsp,443,[],choice-response,Pa,618efaee23d7c4bb8420b7c8,ontime_pa1,3564,417,maintaskTrials
608073d7f5aa0f29e467168b,Group_FJ,0,56f876e6eea5aae750f1c8745f8ad6ce1d6433030fbd1b2a5249925c62907a59,2298.3637430667877,False,keypress,testRsp,518,[],choice-response,Pa,618efaee23d7c4bb8420b7c8,ontime_pa4,3673,418,maintaskTrials
608073d7f5aa0f29e467168b,Group_FJ,0,56f876e6eea5aae750f1c8745f8ad6ce1d6433030fbd1b2a5249925c62907a59,2298.3637430667877,False,keypress,testRsp,301,[],choice-response,Ba,618efaee23d7c4bb8420b7c8,early_pa7,3377,419,maintaskTrials
608073d7f5aa0f29e467168b,Group_FJ,0,56f876e6eea5aae750f1c8745f8ad6ce1d6433030fbd1b2a5249925c62907a59,2298.3637430667877,True,keypress,bird_catchRsp,2285,['Bird singing'],choice-response,Bird singing,618efaee23d7c4bb8420b7c8,songbird,5284,420,Catch_bird
608073d7f5aa0f29e467168b,Group_FJ,0,56f876e6eea5aae750f1c8745f8ad6ce1d6433030fbd1b2a5249925c62907a59,2298.3637430667877,False,keypress,testRsp,845,[],choice-response,Ba,618efaee23d7c4bb8420b7c8,late_pa6,4111,421,maintaskTrials
608073d7f5aa0f29e467168b,Group_FJ,0,56f876e6eea5aae750f1c8745f8ad6ce1d6433030fbd1b2a5249925c62907a59,2298.3637430667877,False,keypress,testRsp,176,[],choice-response,Ba,618efaee23d7c4bb8420b7c8,ontime_pa5,3469,422,maintaskTrials
608073d7f5aa0f29e467168b,Group_FJ,0,56f876e6eea5aae750f1c8745f8ad6ce1d6433030fbd1b2a5249925c62907a59,2298.3637430667877,False,keypress,testRsp,140,[],choice-response,Pa,618efaee23d7c4bb8420b7c8,early_pa4,3218,423,maintaskTrials
608073d7f5aa0f29e467168b,Group_FJ,0,56f876e6eea5aae750f1c8745f8ad6ce1d6433030fbd1b2a5249925c62907a59,2298.3637430667877,False,keypress,testRsp,290,[],choice-response,Pa,618efaee23d7c4bb8420b7c8,ontime_pa3,3434,424,maintaskTrials
608073d7f5aa0f29e467168b,Group_FJ,0,56f876e6eea5aae750f1c8745f8ad6ce1d6433030fbd1b2a5249925c62907a59,2298.3637430667877,False,keypress,testRsp,390,[],choice-response,Ba,618efaee23d7c4bb8420b7c8,late_pa8,3458,425,maintaskTrials
608073d7f5aa0f29e467168b,Group_FJ,0,56f876e6eea5aae750f1c8745f8ad6ce1d6433030fbd1b2a5249925c62907a59,2298.3637430667877,False,keypress,testRsp,252,[],choice-response,Pa,618efaee23d7c4bb8420b7c8,late_pa2,3438,426,maintaskTrials
608073d7f5aa0f29e467168b,Group_FJ,0,56f876e6eea5aae750f1c8745f8ad6ce1d6433030fbd1b2a5249925c62907a59,2298.3637430667877,False,keypress,testRsp,1226,[],choice-response,Pa,618efaee23d7c4bb8420b7c8,late_pa7,4349,427,maintaskTrials
608073d7f5aa0f29e467168b,Group_FJ,0,56f876e6eea5aae750f1c8745f8ad6ce1d6433030fbd1b2a5249925c62907a59,2298.3637430667877,False,keypress,testRsp,1619,[],choice-response,Ba,618efaee23d7c4bb8420b7c8,ontime_pa8,4694,428,maintaskTrials
608073d7f5aa0f29e467168b,Group_FJ,0,56f876e6eea5aae750f1c8745f8ad6ce1d6433030fbd1b2a5249925c62907a59,2298.3637430667877,False,keypress,testRsp,1179,[],choice-response,Pa,618efaee23d7c4bb8420b7c8,ontime_pa4,4342,429,maintaskTrials
608073d7f5aa0f29e467168b,Group_FJ,0,56f876e6eea5aae750f1c8745f8ad6ce1d6433030fbd1b2a5249925c62907a59,2298.3637430667877,False,keypress,testRsp,171,[],choice-response,Ba,618efaee23d7c4bb8420b7c8,ontime_pa6,3268,430,maintaskTrials
608073d7f5aa0f29e467168b,Group_FJ,0,56f876e6eea5aae750f1c8745f8ad6ce1d6433030fbd1b2a5249925c62907a59,2298.3637430667877,False,keypress,testRsp,351,[],choice-response,Ba,618efaee23d7c4bb8420b7c8,early_pa6,3466,431,maintaskTrials
608073d7f5aa0f29e467168b,Group_FJ,0,56f876e6eea5aae750f1c8745f8ad6ce1d6433030fbd1b2a5249925c62907a59,2298.3637430667877,False,keypress,testRsp,422,[],choice-response,Pa,618efaee23d7c4bb8420b7c8,late_pa1,3646,432,maintaskTrials
608073d7f5aa0f29e467168b,Group_FJ,0,56f876e6eea5aae750f1c8745f8ad6ce1d6433030fbd1b2a5249925c62907a59,2298.3637430667877,False,keypress,testRsp,708,[],choice-response,Ba,618efaee23d7c4bb8420b7c8,late_pa6,3779,433,maintaskTrials
608073d7f5aa0f29e467168b,Group_FJ,0,56f876e6eea5aae750f1c8745f8ad6ce1d6433030fbd1b2a5249925c62907a59,2298.3637430667877,False,keypress,testRsp,433,[],choice-response,Pa,618efaee23d7c4bb8420b7c8,early_pa3,3595,434,maintaskTrials
