,branch_failpass,expt_id,group_id,network_error_repeat,participant_id,participation_duration,response_correct,response_mode,response_name,response_rt,response_target,response_type,response_value,session_id,session_start_time,stimuli_presented,trial_duration,trial_num,trial_template,task,sub_id,exp
0,pass,6345b7f49677d36bd07c5a10,EXP8c_JF,0,4c685da32c0562c7f3203118347ebe68afd88aa9613a0cf489f21535e520580c,2422.6003191471104,False,click,tone_or_word,6773,[],choice-response,Musical Tones,636e065bbae6d6e5860db41b,2022-11-11 03:22:51-05:00,debrief3,6777,423,Tone_word_debrief,Tone,4c685,EXP8c
1,pass,6345b7f49677d36bd07c5a10,EXP8c_JF,0,4c685da32c0562c7f3203118347ebe68afd88aa9613a0cf489f21535e520580c,2422.6003191471104,,keypress,TxRsp,39953,,text-response,"I did not hear the words lab or lap in those sounds. I did, however, feel the tones as long and short.",636e065bbae6d6e5860db41b,2022-11-11 03:22:51-05:00,debrief4,39958,424,Tone_word_debrief,Tone,4c685,EXP8c
2,fail,6345b7f49677d36bd07c5a10,EXP8c_JF,0,e1f714c783707d4ffe69f2b25db4fb4bb582b5c1ef8590c78a853e5b219d16a9,2277.8469169139858,False,click,tone_or_word,20225,[],choice-response,Musical Tones,636e065bbae6d6e5860db41b,2022-11-11 03:22:51-05:00,debrief3,20228,435,Tone_word_debrief,Tone,e1f71,EXP8c
3,fail,6345b7f49677d36bd07c5a10,EXP8c_JF,0,e1f714c783707d4ffe69f2b25db4fb4bb582b5c1ef8590c78a853e5b219d16a9,2277.8469169139858,,keypress,TxRsp,39111,,text-response,"The sounds just sounded like tones to me, there was no meaning behind them in my mind.",636e065bbae6d6e5860db41b,2022-11-11 03:22:51-05:00,debrief4,39114,436,Tone_word_debrief,Tone,e1f71,EXP8c
4,fail,6345b7f49677d36bd07c5a10,EXP8c_FJ,0,37e15519097abf5252308b8b30ee8dfe6087b51322d97d38bbbb272809532f44,2400.63973402977,False,click,tone_or_word,10155,[],choice-response,Lab or Lap,636e065bbae6d6e5860db41b,2022-11-11 03:22:51-05:00,debrief3,10159,435,Tone_word_debrief,Tone,37e15,EXP8c
5,fail,6345b7f49677d36bd07c5a10,EXP8c_FJ,0,37e15519097abf5252308b8b30ee8dfe6087b51322d97d38bbbb272809532f44,2400.63973402977,,keypress,TxRsp,21349,,text-response,Feel the sound as being lab or lap,636e065bbae6d6e5860db41b,2022-11-11 03:22:51-05:00,debrief4,21353,436,Tone_word_debrief,Tone,37e15,EXP8c
6,pass,6345b7f49677d36bd07c5a10,EXP8c_JF,0,8167ced290d92f11fda04d3bb0c11169a41303326ef04ea0c08c5cd3a9d8dd9a,1673.3434219360352,False,click,tone_or_word,6800,[],choice-response,Musical Tones,636e065bbae6d6e5860db41b,2022-11-11 03:22:51-05:00,debrief3,6803,423,Tone_word_debrief,Tone,8167c,EXP8c
7,pass,6345b7f49677d36bd07c5a10,EXP8c_JF,0,8167ced290d92f11fda04d3bb0c11169a41303326ef04ea0c08c5cd3a9d8dd9a,1673.3434219360352,,keypress,TxRsp,26588,,text-response,I honestly did not hear a single word and it sounded like tone. Maybe lab and lap were used because of their length of the words in English language,636e065bbae6d6e5860db41b,2022-11-11 03:22:51-05:00,debrief4,26597,424,Tone_word_debrief,Tone,8167c,EXP8c
8,fail,6345b7f49677d36bd07c5a10,EXP8c_JF,0,cbdda6913e3c5fc5ab370f5570992ca18e574f3c15b44b215b7a86c493a07c13,2306.874953985215,False,click,tone_or_word,14700,[],choice-response,Musical Tones,636e065bbae6d6e5860db41b,2022-11-11 03:22:51-05:00,debrief3,14703,435,Tone_word_debrief,Tone,cbdda,EXP8c
9,fail,6345b7f49677d36bd07c5a10,EXP8c_JF,0,cbdda6913e3c5fc5ab370f5570992ca18e574f3c15b44b215b7a86c493a07c13,2306.874953985215,,keypress,TxRsp,17638,,text-response,"They didn't feel like anything, just sounds.",636e065bbae6d6e5860db41b,2022-11-11 03:22:51-05:00,debrief4,17641,436,Tone_word_debrief,Tone,cbdda,EXP8c
10,pass,6345b7f49677d36bd07c5a10,EXP8c_FJ,0,3a8b4685933f50bf0b910c7f3f9debf8eae8837294f77a6cc7bc2c53910ba476,2399.9184448719025,False,click,tone_or_word,46183,[],choice-response,Musical Tones,636e065bbae6d6e5860db41b,2022-11-11 03:22:51-05:00,debrief3,46185,423,Tone_word_debrief,Tone,3a8b4,EXP8c
11,pass,6345b7f49677d36bd07c5a10,EXP8c_FJ,0,3a8b4685933f50bf0b910c7f3f9debf8eae8837294f77a6cc7bc2c53910ba476,2399.9184448719025,,keypress,TxRsp,48635,,text-response,"English has very harsh ""p"" sounds and I found it difficult to hear that but it did seem more like an abrupt stop which made it feel more musical than word like.",636e065bbae6d6e5860db41b,2022-11-11 03:22:51-05:00,debrief4,48718,424,Tone_word_debrief,Tone,3a8b4,EXP8c
12,pass,6345b7f49677d36bd07c5a10,EXP8c_FJ,0,83580f8a886e834911f97058709a23a6ae5fc38fd5de045c2211491d55303283,3363.250174999237,False,click,tone_or_word,11492,[],choice-response,Lab or Lap,636e065bbae6d6e5860db41b,2022-11-11 03:22:51-05:00,debrief3,11495,423,Tone_word_debrief,Tone,83580,EXP8c
13,pass,6345b7f49677d36bd07c5a10,EXP8c_FJ,0,83580f8a886e834911f97058709a23a6ae5fc38fd5de045c2211491d55303283,3363.250174999237,,keypress,TxRsp,29637,,text-response,I did not feel the sound I just thought if the sound was shorter than it was left key and vise versa,636e065bbae6d6e5860db41b,2022-11-11 03:22:51-05:00,debrief4,29641,424,Tone_word_debrief,Tone,83580,EXP8c
14,pass,6345b7f49677d36bd07c5a10,EXP8c_FJ,0,499df02321f2cc432836f758c23e2569da890be9bc590c179d64608a2bf7392e,1845.6144988536835,False,click,tone_or_word,5294,[],choice-response,Musical Tones,636e065bbae6d6e5860db41b,2022-11-11 03:22:51-05:00,debrief3,5297,423,Tone_word_debrief,Tone,499df,EXP8c
15,pass,6345b7f49677d36bd07c5a10,EXP8c_FJ,0,499df02321f2cc432836f758c23e2569da890be9bc590c179d64608a2bf7392e,1845.6144988536835,,keypress,TxRsp,23007,,text-response,"Musical tones 
Lab = the last sound was cut short
Lap = the last sound was smoother and longer",636e065bbae6d6e5860db41b,2022-11-11 03:22:51-05:00,debrief4,23009,424,Tone_word_debrief,Tone,499df,EXP8c
16,pass,6345b7f49677d36bd07c5a10,EXP8c_JF,0,97d8a73ec6fa1777658307bb0ca59d611d5932eee624965ac317e4607b94807a,2234.3007390499115,False,click,tone_or_word,53365,[],choice-response,Musical Tones,636e065bbae6d6e5860db41b,2022-11-11 03:22:51-05:00,debrief3,53368,423,Tone_word_debrief,Tone,97d8a,EXP8c
17,pass,6345b7f49677d36bd07c5a10,EXP8c_JF,0,97d8a73ec6fa1777658307bb0ca59d611d5932eee624965ac317e4607b94807a,2234.3007390499115,,keypress,TxRsp,86072,,text-response,"I felt that the sound produced was more characteristic of a musical tone rather than being similar to the words ""lab"" or ""lap"" because I could not deduce the ending of the tones with ""b"" or ""p"", but rather how long the note was and how abrupt it ended",636e065bbae6d6e5860db41b,2022-11-11 03:22:51-05:00,debrief4,86075,424,Tone_word_debrief,Tone,97d8a,EXP8c
18,pass,6345b7f49677d36bd07c5a10,EXP8c_JF,0,779faeb88f323f6f9ba4255060311b69993e3715d07a28992c8c7a7867a8274f,2364.948704004288,False,click,tone_or_word,8514,[],choice-response,Musical Tones,636e065bbae6d6e5860db41b,2022-11-11 03:22:51-05:00,debrief3,8515,423,Tone_word_debrief,Tone,779fa,EXP8c
19,pass,6345b7f49677d36bd07c5a10,EXP8c_JF,0,779faeb88f323f6f9ba4255060311b69993e3715d07a28992c8c7a7867a8274f,2364.948704004288,,keypress,TxRsp,50881,,text-response,to be honest they sounded just like some harmonics. It got difficult to think about the word rather than just the sound it was making,636e065bbae6d6e5860db41b,2022-11-11 03:22:51-05:00,debrief4,50884,424,Tone_word_debrief,Tone,779fa,EXP8c
20,pass,6345b7f49677d36bd07c5a10,EXP8c_JF,0,dae9aceb0e98d540c140664a8feee52ddf1d97a2bdade3dae6203ed17ef97043,2279.9944670200352,False,click,tone_or_word,9834,[],choice-response,Musical Tones,636e065bbae6d6e5860db41b,2022-11-11 03:22:51-05:00,debrief3,9837,423,Tone_word_debrief,Tone,dae9a,EXP8c
21,pass,6345b7f49677d36bd07c5a10,EXP8c_JF,0,dae9aceb0e98d540c140664a8feee52ddf1d97a2bdade3dae6203ed17ef97043,2279.9944670200352,,keypress,TxRsp,35764,,text-response,"I did not feel like the musical tones sounded anything like the words ""lap"" or ""lab.""",636e065bbae6d6e5860db41b,2022-11-11 03:22:51-05:00,debrief4,35766,424,Tone_word_debrief,Tone,dae9a,EXP8c
22,pass,6345b7f49677d36bd07c5a10,EXP8c_JF,0,f6891cba3990f2bd2240fb7c655cd3ef76a8cc16190db1353b48d927b42ad7d6,2772.2966780662537,False,click,tone_or_word,17092,[],choice-response,Musical Tones,636e065bbae6d6e5860db41b,2022-11-11 03:22:51-05:00,debrief3,17097,423,Tone_word_debrief,Tone,f6891,EXP8c
23,pass,6345b7f49677d36bd07c5a10,EXP8c_JF,0,f6891cba3990f2bd2240fb7c655cd3ef76a8cc16190db1353b48d927b42ad7d6,2772.2966780662537,,keypress,TxRsp,37232,,text-response,I heard musical sounds because they sounded almost the same and could not tell the difference 90% of the time,636e065bbae6d6e5860db41b,2022-11-11 03:22:51-05:00,debrief4,37240,424,Tone_word_debrief,Tone,f6891,EXP8c
24,pass,6345b7f49677d36bd07c5a10,EXP8c_FJ,0,d88d8a68094ae74edd65606a5b22d26a5e38821c8d44da55848ecdf17f2e3159,2811.729108095169,False,click,tone_or_word,22497,[],choice-response,Lab or Lap,636e065bbae6d6e5860db41b,2022-11-11 03:22:51-05:00,debrief3,22500,423,Tone_word_debrief,Tone,d88d8,EXP8c
25,pass,6345b7f49677d36bd07c5a10,EXP8c_FJ,0,d88d8a68094ae74edd65606a5b22d26a5e38821c8d44da55848ecdf17f2e3159,2811.729108095169,,keypress,TxRsp,218644,,text-response,"For me it was a little mix of both but I went with lab and lap because I was able to hear them. In the priming section I couldn't hear the words at all but as I went and noticed a patterned I could hear the words in my head or at least structures of the word I would expect to hear when saying them. Did I hear ""lab"" or ""lap"" no but I could hear the structure of the word.",636e065bbae6d6e5860db41b,2022-11-11 03:22:51-05:00,debrief4,218650,424,Tone_word_debrief,Tone,d88d8,EXP8c
26,pass,6345b7f49677d36bd07c5a10,EXP8c_JF,0,1c0b6a5fa63175eb2f024083aea98426a17e77c2448ce443c2b2207c0bcbbbfb,2218.799772977829,False,click,tone_or_word,9072,[],choice-response,Musical Tones,636e065bbae6d6e5860db41b,2022-11-11 03:22:51-05:00,debrief3,9079,423,Tone_word_debrief,Tone,1c0b6,EXP8c
27,pass,6345b7f49677d36bd07c5a10,EXP8c_JF,0,1c0b6a5fa63175eb2f024083aea98426a17e77c2448ce443c2b2207c0bcbbbfb,2218.799772977829,,keypress,TxRsp,34296,,text-response,"perceive the sound as musical tones, did not associate it with word",636e065bbae6d6e5860db41b,2022-11-11 03:22:51-05:00,debrief4,34301,424,Tone_word_debrief,Tone,1c0b6,EXP8c
28,fail,6345b7f49677d36bd07c5a10,EXP8c_FJ,0,29762cf30a2a36f23c2c7b89c33303a0bea9b00473249f7611166defe9c381e8,1986.7972099781039,False,click,tone_or_word,8579,[],choice-response,Musical Tones,636e065bbae6d6e5860db41b,2022-11-11 03:22:51-05:00,debrief3,8583,435,Tone_word_debrief,Tone,29762,EXP8c
29,fail,6345b7f49677d36bd07c5a10,EXP8c_FJ,0,29762cf30a2a36f23c2c7b89c33303a0bea9b00473249f7611166defe9c381e8,1986.7972099781039,,keypress,TxRsp,46272,,text-response,"I could hear only musical tones. I tried to use the words when listening to the sound, but it didn't change how I heard it.",636e065bbae6d6e5860db41b,2022-11-11 03:22:51-05:00,debrief4,46277,436,Tone_word_debrief,Tone,29762,EXP8c
30,pass,6345b7f49677d36bd07c5a10,EXP8c_FJ,0,fdc6c34d775e742c9ca9c48f294a5ce2f067208df89b0d55a61c685286f915f2,2186.8200199604034,False,click,tone_or_word,16432,[],choice-response,Musical Tones,636e065bbae6d6e5860db41b,2022-11-11 03:22:51-05:00,debrief3,16440,423,Tone_word_debrief,Tone,fdc6c,EXP8c
31,pass,6345b7f49677d36bd07c5a10,EXP8c_FJ,0,fdc6c34d775e742c9ca9c48f294a5ce2f067208df89b0d55a61c685286f915f2,2186.8200199604034,,keypress,TxRsp,49441,,text-response,I heard the difference in the pitches of the tones. The lap was very abrupt and strong while the Lab was longer and smoother in a way.,636e065bbae6d6e5860db41b,2022-11-11 03:22:51-05:00,debrief4,49451,424,Tone_word_debrief,Tone,fdc6c,EXP8c
32,pass,6345b7f49677d36bd07c5a10,EXP8c_FJ,0,740035a65e1c8cd732a9c3082ec28ec91760235f5bbe554b7a1b2de3587b6c73,2122.4008150100713,False,click,tone_or_word,10397,[],choice-response,Musical Tones,636e065bbae6d6e5860db41b,2022-11-11 03:22:51-05:00,debrief3,10400,423,Tone_word_debrief,Tone,74003,EXP8c
33,pass,6345b7f49677d36bd07c5a10,EXP8c_FJ,0,740035a65e1c8cd732a9c3082ec28ec91760235f5bbe554b7a1b2de3587b6c73,2122.4008150100713,,keypress,TxRsp,8991,,text-response,I counted the time?,636e065bbae6d6e5860db41b,2022-11-11 03:22:51-05:00,debrief4,9093,424,Tone_word_debrief,Tone,74003,EXP8c
34,fail,6345b7f49677d36bd07c5a10,EXP8c_JF,0,55175ebec5cdfeb101e9864d17cf2f9518f7cd37b1d5847e01c4d61aa7729c62,1802.6070160865784,False,click,tone_or_word,4228,[],choice-response,Musical Tones,636e065bbae6d6e5860db41b,2022-11-11 03:22:51-05:00,debrief3,4231,435,Tone_word_debrief,Tone,55175,EXP8c
35,fail,6345b7f49677d36bd07c5a10,EXP8c_JF,0,55175ebec5cdfeb101e9864d17cf2f9518f7cd37b1d5847e01c4d61aa7729c62,1802.6070160865784,,keypress,TxRsp,8575,,text-response,Different timbres,636e065bbae6d6e5860db41b,2022-11-11 03:22:51-05:00,debrief4,8577,436,Tone_word_debrief,Tone,55175,EXP8c
36,pass,6345b7f49677d36bd07c5a10,EXP8c_FJ,0,1695b9e78c265b76270d2041b4072bf3c48bde5b7e5a3ea2fd71d5ca549bdcbd,2870.1440460681915,False,click,tone_or_word,13487,[],choice-response,Musical Tones,636e065bbae6d6e5860db41b,2022-11-11 03:22:51-05:00,debrief3,13493,423,Tone_word_debrief,Tone,1695b,EXP8c
37,pass,6345b7f49677d36bd07c5a10,EXP8c_FJ,0,1695b9e78c265b76270d2041b4072bf3c48bde5b7e5a3ea2fd71d5ca549bdcbd,2870.1440460681915,,keypress,TxRsp,72119,,text-response,Hearing the dings and then having to choose what word I heard made it feel like I was hearing more musical tones because the dings were happening in a rhythm.,636e065bbae6d6e5860db41b,2022-11-11 03:22:51-05:00,debrief4,72126,424,Tone_word_debrief,Tone,1695b,EXP8c
38,pass,6345b7f49677d36bd07c5a10,EXP8c_FJ,0,d8ba9ec3df48afaa5c09730466e0c075bbc75250ebe1186dd84acb7acf7225b6,5259.391983985901,False,click,tone_or_word,24791,[],choice-response,Lab or Lap,636e065bbae6d6e5860db41b,2022-11-11 03:22:51-05:00,debrief3,24796,423,Tone_word_debrief,Tone,d8ba9,EXP8c
39,pass,6345b7f49677d36bd07c5a10,EXP8c_FJ,0,d8ba9ec3df48afaa5c09730466e0c075bbc75250ebe1186dd84acb7acf7225b6,5259.391983985901,,keypress,TxRsp,130161,,text-response,I heard both lap and lab even when it started just feeling like noises. Each time I would answer I would get a feeling after hitting the button of either feeling okay with it or regretting it because I felt it was the other one. I still was hearing the words but I also wasn't.,636e065bbae6d6e5860db41b,2022-11-11 03:22:51-05:00,debrief4,130163,424,Tone_word_debrief,Tone,d8ba9,EXP8c
40,pass,6345b7f49677d36bd07c5a10,EXP8c_JF,0,ae3962fc4617f2dd3e13e81b09ead1567e154f4899d9cfe0fbd90e5a559e6c61,2743.999155044556,False,click,tone_or_word,17355,[],choice-response,Lab or Lap,636e065bbae6d6e5860db41b,2022-11-11 03:22:51-05:00,debrief3,17357,423,Tone_word_debrief,Tone,ae396,EXP8c
41,pass,6345b7f49677d36bd07c5a10,EXP8c_JF,0,ae3962fc4617f2dd3e13e81b09ead1567e154f4899d9cfe0fbd90e5a559e6c61,2743.999155044556,,keypress,TxRsp,139318,,text-response,"I didn't really perceive the sound as musical tones because I was told to think in context of lab or lap. I also feel like I was listening more for what I perceived as a ""hold"" in the lab sound that I didn't perceive in the lap sound, a result of me thinking about someone saying lab and lap.",636e065bbae6d6e5860db41b,2022-11-11 03:22:51-05:00,debrief4,139319,424,Tone_word_debrief,Tone,ae396,EXP8c
42,fail,6345b7f49677d36bd07c5a10,EXP8c_JF,0,9ca859fc3b8f17bff91497b554e64af13e9ee123a2819b5099d74d990ef9f752,1792.9557588100433,False,click,tone_or_word,9504,[],choice-response,Lab or Lap,636e065bbae6d6e5860db41b,2022-11-11 03:22:51-05:00,debrief3,9506,435,Tone_word_debrief,Tone,9ca85,EXP8c
43,fail,6345b7f49677d36bd07c5a10,EXP8c_JF,0,9ca859fc3b8f17bff91497b554e64af13e9ee123a2819b5099d74d990ef9f752,1792.9557588100433,,keypress,TxRsp,11659,,text-response,I could hear the sound at the end,636e065bbae6d6e5860db41b,2022-11-11 03:22:51-05:00,debrief4,11661,436,Tone_word_debrief,Tone,9ca85,EXP8c
44,fail,6345b7f49677d36bd07c5a10,EXP8c_JF,0,70337e053d6280ba5f298a7ce56e89b1150ee9db13fe56b8cc0dac046ffe6885,3496.01327419281,False,click,tone_or_word,11361,[],choice-response,Musical Tones,636e065bbae6d6e5860db41b,2022-11-11 03:22:51-05:00,debrief3,11365,435,Tone_word_debrief,Tone,70337,EXP8c
45,fail,6345b7f49677d36bd07c5a10,EXP8c_JF,0,70337e053d6280ba5f298a7ce56e89b1150ee9db13fe56b8cc0dac046ffe6885,3496.01327419281,,keypress,TxRsp,94454,,text-response,"It was difficult for me to decipher words from the played sound. Instead of sounding like words, the noise in the experiment was more like a melody. The longer melody to me meant the word was ""lab"" while the shorter sounding melody meant the word was ""lap"".",636e065bbae6d6e5860db41b,2022-11-11 03:22:51-05:00,debrief4,94457,436,Tone_word_debrief,Tone,70337,EXP8c
46,pass,6345b7f49677d36bd07c5a10,EXP8c_FJ,0,c871691bd604e6bac1b82f1b3d1136ad0e530ea0d1f58b20793b69fb921f780e,2658.9851770401,False,click,tone_or_word,10257,[],choice-response,Musical Tones,636e065bbae6d6e5860db41b,2022-11-11 03:22:51-05:00,debrief3,10259,423,Tone_word_debrief,Tone,c8716,EXP8c
47,pass,6345b7f49677d36bd07c5a10,EXP8c_FJ,0,c871691bd604e6bac1b82f1b3d1136ad0e530ea0d1f58b20793b69fb921f780e,2658.9851770401,,keypress,TxRsp,37582,,text-response,I chose as musical tone since they never felt as if lap or lab were being said.,636e065bbae6d6e5860db41b,2022-11-11 03:22:51-05:00,debrief4,37598,424,Tone_word_debrief,Tone,c8716,EXP8c
48,pass,6345b7f49677d36bd07c5a10,EXP8c_FJ,0,93732dc552366b93f9c8cb33a027ebf090fe6ce3a6e56c0573cf50f9fba7888d,2522.9319710731506,False,click,tone_or_word,12963,[],choice-response,Musical Tones,636e065bbae6d6e5860db41b,2022-11-11 03:22:51-05:00,debrief3,12966,423,Tone_word_debrief,Tone,93732,EXP8c
49,pass,6345b7f49677d36bd07c5a10,EXP8c_FJ,0,93732dc552366b93f9c8cb33a027ebf090fe6ce3a6e56c0573cf50f9fba7888d,2522.9319710731506,,keypress,TxRsp,53443,,text-response,The musical tone I would heard would help my brain associate lap with a harsher stop and lab with a more rounded ending.,636e065bbae6d6e5860db41b,2022-11-11 03:22:51-05:00,debrief4,53445,424,Tone_word_debrief,Tone,93732,EXP8c
50,pass,6345b7f49677d36bd07c5a10,EXP8c_FJ,0,b902b68c2506df1ee87431e747e6079ae032b7d23fc9657dec64336781af87f2,1802.500283956528,False,click,tone_or_word,11046,[],choice-response,Musical Tones,636e065bbae6d6e5860db41b,2022-11-11 03:22:51-05:00,debrief3,11049,423,Tone_word_debrief,Tone,b902b,EXP8c
51,pass,6345b7f49677d36bd07c5a10,EXP8c_FJ,0,b902b68c2506df1ee87431e747e6079ae032b7d23fc9657dec64336781af87f2,1802.500283956528,,keypress,TxRsp,38613,,text-response,"I didn't hear lab or lap so my brain listen to the length and lab seemed to be a longer tone, while lap was very quick",636e065bbae6d6e5860db41b,2022-11-11 03:22:51-05:00,debrief4,38618,424,Tone_word_debrief,Tone,b902b,EXP8c
52,pass,6345b7f49677d36bd07c5a10,EXP8c_JF,0,0e2a554e8625e35ca934bd8c2a3853ea7e4c45fc9ee67fdb9daefbbebe2e8669,2840.900662899017,False,click,tone_or_word,9296,[],choice-response,Lab or Lap,636e065bbae6d6e5860db41b,2022-11-11 03:22:51-05:00,debrief3,9299,423,Tone_word_debrief,Tone,0e2a5,EXP8c
53,pass,6345b7f49677d36bd07c5a10,EXP8c_JF,0,0e2a554e8625e35ca934bd8c2a3853ea7e4c45fc9ee67fdb9daefbbebe2e8669,2840.900662899017,,keypress,TxRsp,92338,,text-response,"Like I mentioned before, 'lab' had a longer beep whereas 'lap' had a shorter beep, and I associated the varying length with how someone would say the different words respectively.",636e065bbae6d6e5860db41b,2022-11-11 03:22:51-05:00,debrief4,92341,424,Tone_word_debrief,Tone,0e2a5,EXP8c
54,pass,6345b7f49677d36bd07c5a10,EXP8c_FJ,0,75a23d8525dc843ad29fe16c7474f6bdbd18f1bd25f8f5dc51bf477cf3a80300,1989.778632879257,False,click,tone_or_word,10730,[],choice-response,Musical Tones,636e065bbae6d6e5860db41b,2022-11-11 03:22:51-05:00,debrief3,10732,423,Tone_word_debrief,Tone,75a23,EXP8c
55,pass,6345b7f49677d36bd07c5a10,EXP8c_FJ,0,75a23d8525dc843ad29fe16c7474f6bdbd18f1bd25f8f5dc51bf477cf3a80300,1989.778632879257,,keypress,TxRsp,47760,,text-response,"I never heard any enunciation of the actual words, so they sounded a lot more to me like different musical tones (which in part related to the way Lap and Lab sound when said out loud)",636e065bbae6d6e5860db41b,2022-11-11 03:22:51-05:00,debrief4,47763,424,Tone_word_debrief,Tone,75a23,EXP8c
56,pass,6345b7f49677d36bd07c5a10,EXP8c_JF,0,d9664d1924243e84490b1f9d8b6747aac071af5c20914af34c6003a97b857a51,3043.088893175125,False,click,tone_or_word,5673,[],choice-response,Musical Tones,636e065bbae6d6e5860db41b,2022-11-11 03:22:51-05:00,debrief3,5676,423,Tone_word_debrief,Tone,d9664,EXP8c
57,pass,6345b7f49677d36bd07c5a10,EXP8c_JF,0,d9664d1924243e84490b1f9d8b6747aac071af5c20914af34c6003a97b857a51,3043.088893175125,,keypress,TxRsp,16660,,text-response,I felt long sound was lab and short sound was lap,636e065bbae6d6e5860db41b,2022-11-11 03:22:51-05:00,debrief4,16664,424,Tone_word_debrief,Tone,d9664,EXP8c
58,pass,6345b7f49677d36bd07c5a10,EXP8c_FJ,0,07d1127d35accfd10fa77125c2ebfcf09ac2d859d29a61d528ebcf8ea60b0f20,2254.012971878052,False,click,tone_or_word,7566,[],choice-response,Musical Tones,636e065bbae6d6e5860db41b,2022-11-11 03:22:51-05:00,debrief3,7570,423,Tone_word_debrief,Tone,07d11,EXP8c
59,pass,6345b7f49677d36bd07c5a10,EXP8c_FJ,0,07d1127d35accfd10fa77125c2ebfcf09ac2d859d29a61d528ebcf8ea60b0f20,2254.012971878052,,keypress,TxRsp,21079,,text-response,It just sounded more like musical tones.,636e065bbae6d6e5860db41b,2022-11-11 03:22:51-05:00,debrief4,21084,424,Tone_word_debrief,Tone,07d11,EXP8c
60,fail,6345b7f49677d36bd07c5a10,EXP8c_JF,0,fa58eeb09beb5b6732a8cf0c443c87a3d19f581b47f2d7983228a42646882af3,2254.8002779483795,False,click,tone_or_word,17247,[],choice-response,Lab or Lap,636e065bbae6d6e5860db41b,2022-11-11 03:22:51-05:00,debrief3,17249,435,Tone_word_debrief,Tone,fa58e,EXP8c
61,fail,6345b7f49677d36bd07c5a10,EXP8c_JF,0,fa58eeb09beb5b6732a8cf0c443c87a3d19f581b47f2d7983228a42646882af3,2254.8002779483795,,keypress,TxRsp,68172,,text-response,"I couldn't really percieve the sound. I mostly just ""felt"" the sound as being lab although it sounded the same every time without knowing if I selected correctly or incorrectly.",636e065bbae6d6e5860db41b,2022-11-11 03:22:51-05:00,debrief4,68219,436,Tone_word_debrief,Tone,fa58e,EXP8c
62,pass,6345b7f49677d36bd07c5a10,EXP8c_FJ,0,94aef9f1165943f8855355c5cd11702ad3b7a493a7d4cae2429fa47cb1373d64,1948.408194065094,False,click,tone_or_word,7846,[],choice-response,Lab or Lap,636e065bbae6d6e5860db41b,2022-11-11 03:22:51-05:00,debrief3,7850,423,Tone_word_debrief,Tone,94aef,EXP8c
63,pass,6345b7f49677d36bd07c5a10,EXP8c_FJ,0,94aef9f1165943f8855355c5cd11702ad3b7a493a7d4cae2429fa47cb1373d64,1948.408194065094,,keypress,TxRsp,40416,,text-response,I could infer from the length whether it was lap or lab,636e065bbae6d6e5860db41b,2022-11-11 03:22:51-05:00,debrief4,40422,424,Tone_word_debrief,Tone,94aef,EXP8c
64,pass,6345b7f49677d36bd07c5a10,EXP8c_FJ,0,cbea07ee944e05e13c351ed430b8d6dc4ef2c8fbc020eebc889eac7d4010d9b3,1916.5606899261475,False,click,tone_or_word,10258,[],choice-response,Lab or Lap,635300ef7f3ee915ba688e53,2022-10-21 16:28:31-04:00,debrief3,10263,423,Tone_word_debrief,Tone,cbea0,EXP8c
65,pass,6345b7f49677d36bd07c5a10,EXP8c_FJ,0,cbea07ee944e05e13c351ed430b8d6dc4ef2c8fbc020eebc889eac7d4010d9b3,1916.5606899261475,,keypress,TxRsp,31810,,text-response,"could only tell b vs p based on duration of last part of sound, so that's what i used to tell the difference although it was hard",635300ef7f3ee915ba688e53,2022-10-21 16:28:31-04:00,debrief4,32158,424,Tone_word_debrief,Tone,cbea0,EXP8c
66,pass,6345b7f49677d36bd07c5a10,EXP8c_JF,0,bb761133aff4f74fbe2b159086ec3f722b068f04001a23ad9f33f62a7e11f67e,2027.0975630283358,False,click,tone_or_word,11666,[],choice-response,Musical Tones,635300ef7f3ee915ba688e53,2022-10-21 16:28:31-04:00,debrief3,11669,423,Tone_word_debrief,Tone,bb761,EXP8c
67,pass,6345b7f49677d36bd07c5a10,EXP8c_JF,0,bb761133aff4f74fbe2b159086ec3f722b068f04001a23ad9f33f62a7e11f67e,2027.0975630283358,,keypress,TxRsp,28501,,text-response,I feel one musical tone is longer and one is shorter,635300ef7f3ee915ba688e53,2022-10-21 16:28:31-04:00,debrief4,28599,424,Tone_word_debrief,Tone,bb761,EXP8c
68,pass,6345b7f49677d36bd07c5a10,EXP8c_JF,0,5f8f2a5d83be0ebd0fea29fa3872bd6d112bfe4a946c91d72a472e673434da24,2126.461858987808,False,click,tone_or_word,16717,[],choice-response,Musical Tones,635300ef7f3ee915ba688e53,2022-10-21 16:28:31-04:00,debrief3,16719,423,Tone_word_debrief,Tone,5f8f2,EXP8c
69,pass,6345b7f49677d36bd07c5a10,EXP8c_JF,0,5f8f2a5d83be0ebd0fea29fa3872bd6d112bfe4a946c91d72a472e673434da24,2126.461858987808,,keypress,TxRsp,48635,,text-response,"they were musical tones to me, one of the sounded slightly longer and more smooth",635300ef7f3ee915ba688e53,2022-10-21 16:28:31-04:00,debrief4,48640,424,Tone_word_debrief,Tone,5f8f2,EXP8c
70,pass,6345b7f49677d36bd07c5a10,EXP8c_JF,0,8560adbd5e45d7aff7e037640491dcb9939a3ead0fa5cd00f08bd926c50f7d6d,2400.798967123032,False,click,tone_or_word,7172,[],choice-response,Musical Tones,635300ef7f3ee915ba688e53,2022-10-21 16:28:31-04:00,debrief3,7174,423,Tone_word_debrief,Tone,8560a,EXP8c
71,pass,6345b7f49677d36bd07c5a10,EXP8c_JF,0,8560adbd5e45d7aff7e037640491dcb9939a3ead0fa5cd00f08bd926c50f7d6d,2400.798967123032,,keypress,TxRsp,21907,,text-response,I felt the inflection of the tones was different and couldn’t hear the word,635300ef7f3ee915ba688e53,2022-10-21 16:28:31-04:00,debrief4,21910,424,Tone_word_debrief,Tone,8560a,EXP8c
72,fail,6345b7f49677d36bd07c5a10,EXP8c_FJ,0,400749b5a7ce4d599efdbda155b0d943fe8ac724301bdd9440ff5de22967df1f,2223.1236808300023,False,click,tone_or_word,8494,[],choice-response,Lab or Lap,635300ef7f3ee915ba688e53,2022-10-21 16:28:31-04:00,debrief3,8496,435,Tone_word_debrief,Tone,40074,EXP8c
73,fail,6345b7f49677d36bd07c5a10,EXP8c_FJ,0,400749b5a7ce4d599efdbda155b0d943fe8ac724301bdd9440ff5de22967df1f,2223.1236808300023,,keypress,TxRsp,28010,,text-response,I would be able to switch if my mind was thinking of the word lap or lab and I would pick the one I was thinking of.,635300ef7f3ee915ba688e53,2022-10-21 16:28:31-04:00,debrief4,28012,436,Tone_word_debrief,Tone,40074,EXP8c
74,pass,6345b7f49677d36bd07c5a10,EXP8c_FJ,0,49aecf7a0752f02c4023c7a7eb2e4aba80e357112fb1df6c285a7ade893a0428,2054.7306561470027,False,click,tone_or_word,1960,[],choice-response,Lab or Lap,635300ef7f3ee915ba688e53,2022-10-21 16:28:31-04:00,debrief3,1963,423,Tone_word_debrief,Tone,49aec,EXP8c
75,pass,6345b7f49677d36bd07c5a10,EXP8c_FJ,0,49aecf7a0752f02c4023c7a7eb2e4aba80e357112fb1df6c285a7ade893a0428,2054.7306561470027,,keypress,TxRsp,43157,,text-response,"lab vs lap. if the ending had a ""hard"" ending, I said it was lap, vs. soft I put lab",635300ef7f3ee915ba688e53,2022-10-21 16:28:31-04:00,debrief4,43160,424,Tone_word_debrief,Tone,49aec,EXP8c
76,pass,6345b7f49677d36bd07c5a10,EXP8c_FJ,0,aaf24b1f8783b235cdadfb3f4f81b4b0932a967f19fe18cebdc388b3e7eb18f3,2121.661278963089,False,click,tone_or_word,18637,[],choice-response,Musical Tones,635300ef7f3ee915ba688e53,2022-10-21 16:28:31-04:00,debrief3,18640,423,Tone_word_debrief,Tone,aaf24,EXP8c
77,pass,6345b7f49677d36bd07c5a10,EXP8c_FJ,0,aaf24b1f8783b235cdadfb3f4f81b4b0932a967f19fe18cebdc388b3e7eb18f3,2121.661278963089,,keypress,TxRsp,59712,,text-response,I percieved lap as a short as a sharp sound while lab was percieved as curved and drawn out,635300ef7f3ee915ba688e53,2022-10-21 16:28:31-04:00,debrief4,59715,424,Tone_word_debrief,Tone,aaf24,EXP8c
78,pass,6345b7f49677d36bd07c5a10,EXP8c_FJ,0,558e8bcc178ece1d62f932c5209cb869e88a2f89e0a60e4a366ca069adedbc1b,1988.7800397872925,False,click,tone_or_word,8737,[],choice-response,Musical Tones,635300ef7f3ee915ba688e53,2022-10-21 16:28:31-04:00,debrief3,8739,423,Tone_word_debrief,Tone,558e8,EXP8c
79,pass,6345b7f49677d36bd07c5a10,EXP8c_FJ,0,558e8bcc178ece1d62f932c5209cb869e88a2f89e0a60e4a366ca069adedbc1b,1988.7800397872925,,keypress,TxRsp,28819,,text-response,"They didnt have any word tied to them, they only sounded like 2 different tones that had different lengths.",635300ef7f3ee915ba688e53,2022-10-21 16:28:31-04:00,debrief4,28821,424,Tone_word_debrief,Tone,558e8,EXP8c
80,pass,6345b7f49677d36bd07c5a10,EXP8c_JF,0,9e53171b0dcf119a44e8637c3196bade40263a7917d798a2053024ea80761c9c,2208.810430049896,False,click,tone_or_word,8419,[],choice-response,Musical Tones,635300ef7f3ee915ba688e53,2022-10-21 16:28:31-04:00,debrief3,8423,423,Tone_word_debrief,Tone,9e531,EXP8c
81,pass,6345b7f49677d36bd07c5a10,EXP8c_JF,0,9e53171b0dcf119a44e8637c3196bade40263a7917d798a2053024ea80761c9c,2208.810430049896,,keypress,TxRsp,13226,,text-response,It didn't sound like lab or lap to me.,635300ef7f3ee915ba688e53,2022-10-21 16:28:31-04:00,debrief4,13229,424,Tone_word_debrief,Tone,9e531,EXP8c
82,pass,6345b7f49677d36bd07c5a10,EXP8c_JF,0,d759bb063270724dc3273a57045ddd551a118d960954f22c52a332a9385aafbc,1822.4353811740875,False,click,tone_or_word,8596,[],choice-response,Musical Tones,635300ef7f3ee915ba688e53,2022-10-21 16:28:31-04:00,debrief3,8602,423,Tone_word_debrief,Tone,d759b,EXP8c
83,pass,6345b7f49677d36bd07c5a10,EXP8c_JF,0,d759bb063270724dc3273a57045ddd551a118d960954f22c52a332a9385aafbc,1822.4353811740875,,keypress,TxRsp,28161,,text-response,"The sounds did not feel like they were ""shaped"" like lab or lap, despite them being slightly different",635300ef7f3ee915ba688e53,2022-10-21 16:28:31-04:00,debrief4,28164,424,Tone_word_debrief,Tone,d759b,EXP8c
84,fail,6345b7f49677d36bd07c5a10,EXP8c_FJ,0,62ec769f5695a6d4d64df6125090ef409ee5c1e9747c0ac161b7559c7ed20e89,2301.080215930939,False,click,tone_or_word,12780,[],choice-response,Lab or Lap,635300ef7f3ee915ba688e53,2022-10-21 16:28:31-04:00,debrief3,12782,435,Tone_word_debrief,Tone,62ec7,EXP8c
85,fail,6345b7f49677d36bd07c5a10,EXP8c_FJ,0,62ec769f5695a6d4d64df6125090ef409ee5c1e9747c0ac161b7559c7ed20e89,2301.080215930939,,keypress,TxRsp,13601,,text-response,that is what you were asking us to hear,635300ef7f3ee915ba688e53,2022-10-21 16:28:31-04:00,debrief4,13604,436,Tone_word_debrief,Tone,62ec7,EXP8c
86,fail,6345b7f49677d36bd07c5a10,EXP8c_FJ,0,58ba4d4fb1eed587db32b5754242b038c92f34334157737661797d16a4d46018,2657.408222913742,False,click,tone_or_word,11334,[],choice-response,Musical Tones,635300ef7f3ee915ba688e53,2022-10-21 16:28:31-04:00,debrief3,11337,435,Tone_word_debrief,Tone,58ba4,EXP8c
87,fail,6345b7f49677d36bd07c5a10,EXP8c_FJ,0,58ba4d4fb1eed587db32b5754242b038c92f34334157737661797d16a4d46018,2657.408222913742,,keypress,TxRsp,110349,,text-response,"I heard them more as musical tones, rather than as ""lab"" and ""lap."" In other words, I relied on the length of the musical tones to distinguish whether they were ""lab,"" a longer note,  or ""lap,"" the shorter note.",635300ef7f3ee915ba688e53,2022-10-21 16:28:31-04:00,debrief4,110351,436,Tone_word_debrief,Tone,58ba4,EXP8c
88,pass,6345b7f49677d36bd07c5a10,EXP8c_JF,0,0f82e5f481b7e8eb65f921f60343be72d36564ecf26c542529e4cb64d010c09c,2108.23991894722,False,click,tone_or_word,11327,[],choice-response,Musical Tones,635300ef7f3ee915ba688e53,2022-10-21 16:28:31-04:00,debrief3,11330,423,Tone_word_debrief,Tone,0f82e,EXP8c
89,pass,6345b7f49677d36bd07c5a10,EXP8c_JF,0,0f82e5f481b7e8eb65f921f60343be72d36564ecf26c542529e4cb64d010c09c,2108.23991894722,,keypress,TxRsp,55062,,text-response,I personally think the 'a' in lab and lap sound the same especially when I say them out loud so I differentiated them through tones instead.,635300ef7f3ee915ba688e53,2022-10-21 16:28:31-04:00,debrief4,55064,424,Tone_word_debrief,Tone,0f82e,EXP8c
90,pass,6345b7f49677d36bd07c5a10,EXP8c_JF,0,d816b5e454def41224c9ce03802e71f41efc0ba91a3491387cc3043eaea74ae4,2146.5496218204503,False,click,tone_or_word,7204,[],choice-response,Musical Tones,635300ef7f3ee915ba688e53,2022-10-21 16:28:31-04:00,debrief3,7208,423,Tone_word_debrief,Tone,d816b,EXP8c
91,pass,6345b7f49677d36bd07c5a10,EXP8c_JF,0,d816b5e454def41224c9ce03802e71f41efc0ba91a3491387cc3043eaea74ae4,2146.5496218204503,,keypress,TxRsp,40360,,text-response,"I could not eel the sound as either of the words, they were just musical tones that had a slight difference",635300ef7f3ee915ba688e53,2022-10-21 16:28:31-04:00,debrief4,40364,424,Tone_word_debrief,Tone,d816b,EXP8c
92,fail,6345b7f49677d36bd07c5a10,EXP8c_FJ,0,b85ff278f5b1092cc490071467366da4bef3b2773eab92ace46503c40a6c4ae2,2644.362780094147,False,click,tone_or_word,12054,[],choice-response,Musical Tones,635300ef7f3ee915ba688e53,2022-10-21 16:28:31-04:00,debrief3,12059,435,Tone_word_debrief,Tone,b85ff,EXP8c
93,fail,6345b7f49677d36bd07c5a10,EXP8c_FJ,0,b85ff278f5b1092cc490071467366da4bef3b2773eab92ace46503c40a6c4ae2,2644.362780094147,,keypress,TxRsp,47808,,text-response,To me it was solely musical tones. There was a beat but i did not feel the sounds as being lab and lap.,635300ef7f3ee915ba688e53,2022-10-21 16:28:31-04:00,debrief4,47814,436,Tone_word_debrief,Tone,b85ff,EXP8c
94,pass,6345b7f49677d36bd07c5a10,EXP8c_JF,0,d88eb8a2627f3bce312c623412f3982e37beb1c029ad5f29ddeeafec917e2f99,2387.0976469516754,False,click,tone_or_word,17099,[],choice-response,Musical Tones,635300ef7f3ee915ba688e53,2022-10-21 16:28:31-04:00,debrief3,17103,423,Tone_word_debrief,Tone,d88eb,EXP8c
95,pass,6345b7f49677d36bd07c5a10,EXP8c_JF,0,d88eb8a2627f3bce312c623412f3982e37beb1c029ad5f29ddeeafec917e2f99,2387.0976469516754,,keypress,TxRsp,35079,,text-response,It sounds like musical tones and with regular rhythm,635300ef7f3ee915ba688e53,2022-10-21 16:28:31-04:00,debrief4,35178,424,Tone_word_debrief,Tone,d88eb,EXP8c
96,fail,6345b7f49677d36bd07c5a10,EXP8c_JF,0,489cac8395433cc89254b8ae5ec25661901a8d86248b9359affbcae918b3a5f5,2382.22069311142,False,click,tone_or_word,9237,[],choice-response,Musical Tones,635300ef7f3ee915ba688e53,2022-10-21 16:28:31-04:00,debrief3,9248,435,Tone_word_debrief,Tone,489ca,EXP8c
97,fail,6345b7f49677d36bd07c5a10,EXP8c_JF,0,489cac8395433cc89254b8ae5ec25661901a8d86248b9359affbcae918b3a5f5,2382.22069311142,,keypress,TxRsp,39610,,text-response,"I heard musical tones that sounded like they were reverberating the words lab and lap, but eventually they stopped sounding like music tones, and more like words.",635300ef7f3ee915ba688e53,2022-10-21 16:28:31-04:00,debrief4,39619,436,Tone_word_debrief,Tone,489ca,EXP8c
98,fail,6345b7f49677d36bd07c5a10,EXP8c_JF,0,85f0917e33356f57e5a73060188a4563d62ae2a75824b1943bba1d8a7020bf02,2507.4692640304565,False,click,tone_or_word,6097,[],choice-response,Musical Tones,635300ef7f3ee915ba688e53,2022-10-21 16:28:31-04:00,debrief3,6100,435,Tone_word_debrief,Tone,85f09,EXP8c
99,fail,6345b7f49677d36bd07c5a10,EXP8c_JF,0,85f0917e33356f57e5a73060188a4563d62ae2a75824b1943bba1d8a7020bf02,2507.4692640304565,,keypress,TxRsp,14389,,text-response,calm,635300ef7f3ee915ba688e53,2022-10-21 16:28:31-04:00,debrief4,14391,436,Tone_word_debrief,Tone,85f09,EXP8c
100,pass,6345b7f49677d36bd07c5a10,EXP8c_FJ,0,9c7875ebdf5b71a709e04953b5a7701da5f8278ac48d8e488ac02a532894e9fe,2369.3102388381963,False,click,tone_or_word,7133,[],choice-response,Musical Tones,635300ef7f3ee915ba688e53,2022-10-21 16:28:31-04:00,debrief3,7136,423,Tone_word_debrief,Tone,9c787,EXP8c
101,pass,6345b7f49677d36bd07c5a10,EXP8c_FJ,0,9c7875ebdf5b71a709e04953b5a7701da5f8278ac48d8e488ac02a532894e9fe,2369.3102388381963,,keypress,TxRsp,25198,,text-response,I did not hear any words. I just heard a tones that sounded slightly different from each other but not enough to differentiate,635300ef7f3ee915ba688e53,2022-10-21 16:28:31-04:00,debrief4,25202,424,Tone_word_debrief,Tone,9c787,EXP8c
102,fail,6345b7f49677d36bd07c5a10,EXP8c_FJ,0,6ce60adeb6e9b877826599ab39c3b088ce2c62e9fc1673405b71b597937b8606,2094.095845937729,False,click,tone_or_word,13782,[],choice-response,Musical Tones,635300ef7f3ee915ba688e53,2022-10-21 16:28:31-04:00,debrief3,13817,435,Tone_word_debrief,Tone,6ce60,EXP8c
103,fail,6345b7f49677d36bd07c5a10,EXP8c_FJ,0,6ce60adeb6e9b877826599ab39c3b088ce2c62e9fc1673405b71b597937b8606,2094.095845937729,,keypress,TxRsp,25277,,text-response,i cant recognize the lab and lap difference,635300ef7f3ee915ba688e53,2022-10-21 16:28:31-04:00,debrief4,25297,436,Tone_word_debrief,Tone,6ce60,EXP8c
104,pass,6345b7f49677d36bd07c5a10,EXP8c_FJ,0,0ed6d427ac8c7ce9f22041ff8d41da728aa914d05f5769ddc67da2ec0287e1e0,2158.851804971695,False,click,tone_or_word,11379,[],choice-response,Lab or Lap,635300ef7f3ee915ba688e53,2022-10-21 16:28:31-04:00,debrief3,11382,423,Tone_word_debrief,Tone,0ed6d,EXP8c
105,pass,6345b7f49677d36bd07c5a10,EXP8c_FJ,0,0ed6d427ac8c7ce9f22041ff8d41da728aa914d05f5769ddc67da2ec0287e1e0,2158.851804971695,,keypress,TxRsp,68584,,text-response,"The tone that was played for lab was longer as the way you would pronounce the word lab, elongating the 'a' vowel while the tone for lap was very short and almost felt like it was being cut in half in comparison to the sound for lab.",635300ef7f3ee915ba688e53,2022-10-21 16:28:31-04:00,debrief4,68592,424,Tone_word_debrief,Tone,0ed6d,EXP8c
106,fail,6345b7f49677d36bd07c5a10,EXP8c_FJ,0,69689ab5747708a7e2cffcfab6f3472c0c5dc7aed9e378eed308392ef2e0de4b,3859.4194388389587,False,click,tone_or_word,25319,[],choice-response,Musical Tones,635300ef7f3ee915ba688e53,2022-10-21 16:28:31-04:00,debrief3,25328,435,Tone_word_debrief,Tone,69689,EXP8c
107,fail,6345b7f49677d36bd07c5a10,EXP8c_FJ,0,69689ab5747708a7e2cffcfab6f3472c0c5dc7aed9e378eed308392ef2e0de4b,3859.4194388389587,,keypress,TxRsp,70975,,text-response,"I thought that the words were musical tones, because lap and lab were hard to differentiate from each other.",635300ef7f3ee915ba688e53,2022-10-21 16:28:31-04:00,debrief4,70980,436,Tone_word_debrief,Tone,69689,EXP8c
108,pass,6345b7f49677d36bd07c5a10,EXP8c_FJ,0,4e6ded33c7278ac89e58ec09ff17def71b27ae245924593c1b465befae3dc9a7,6468.454480171204,False,click,tone_or_word,10720,[],choice-response,Lab or Lap,635300ef7f3ee915ba688e53,2022-10-21 16:28:31-04:00,debrief3,10729,423,Tone_word_debrief,Tone,4e6de,EXP8c
109,pass,6345b7f49677d36bd07c5a10,EXP8c_FJ,0,4e6ded33c7278ac89e58ec09ff17def71b27ae245924593c1b465befae3dc9a7,6468.454480171204,,keypress,TxRsp,23527,,text-response,i tried to imagine someone saying the words,635300ef7f3ee915ba688e53,2022-10-21 16:28:31-04:00,debrief4,23538,424,Tone_word_debrief,Tone,4e6de,EXP8c
110,pass,6345b7f49677d36bd07c5a10,EXP8c_JF,0,085e4485dd0c49dd161bfce5917a7ec5d9475532efe0a0316aa01ae495c2994b,3571.066705942154,False,click,tone_or_word,10751,[],choice-response,Musical Tones,635300ef7f3ee915ba688e53,2022-10-21 16:28:31-04:00,debrief3,10760,423,Tone_word_debrief,Tone,085e4,EXP8c
111,pass,6345b7f49677d36bd07c5a10,EXP8c_JF,0,085e4485dd0c49dd161bfce5917a7ec5d9475532efe0a0316aa01ae495c2994b,3571.066705942154,,keypress,TxRsp,136648,,text-response,"I perceived them more as musical tones. There was a slight difference in length. ""Lab"" was longer than ""lap"", so I just associated the longer sound with ""lab"" and the shorter sound with ""lap"". I also pictured ""lab"" going in a ""U"" shape while ""lap"" sounded as if it was cutoff.",635300ef7f3ee915ba688e53,2022-10-21 16:28:31-04:00,debrief4,136654,424,Tone_word_debrief,Tone,085e4,EXP8c
112,pass,6345b7f49677d36bd07c5a10,EXP8c_JF,0,fb14735ec78516bcf9224e95bb990d51b802731caf3975701007e3c5ee6d2160,2598.5367031097408,False,click,tone_or_word,11511,[],choice-response,Musical Tones,635300ef7f3ee915ba688e53,2022-10-21 16:28:31-04:00,debrief3,11515,423,Tone_word_debrief,Tone,fb147,EXP8c
113,pass,6345b7f49677d36bd07c5a10,EXP8c_JF,0,fb14735ec78516bcf9224e95bb990d51b802731caf3975701007e3c5ee6d2160,2598.5367031097408,,keypress,TxRsp,69463,,text-response,"i couldn't identify any actual letter sounds, B I identify as a ""hard sound"" and p as a soft but the ending of the words when changed didn't have either of those",635300ef7f3ee915ba688e53,2022-10-21 16:28:31-04:00,debrief4,69467,424,Tone_word_debrief,Tone,fb147,EXP8c
114,pass,6345b7f49677d36bd07c5a10,EXP8c_JF,0,7effe65d9b27ee53921cf3c6cfd69f948dc9ee0e314bed846d803c7d5f8b6a11,2083.589346170425,False,click,tone_or_word,18374,[],choice-response,Musical Tones,635300ef7f3ee915ba688e53,2022-10-21 16:28:31-04:00,debrief3,18376,423,Tone_word_debrief,Tone,7effe,EXP8c
115,pass,6345b7f49677d36bd07c5a10,EXP8c_JF,0,7effe65d9b27ee53921cf3c6cfd69f948dc9ee0e314bed846d803c7d5f8b6a11,2083.589346170425,,keypress,TxRsp,39107,,text-response,I only head musical tones like a ding sound much nothing much to it aside from that.,635300ef7f3ee915ba688e53,2022-10-21 16:28:31-04:00,debrief4,39111,424,Tone_word_debrief,Tone,7effe,EXP8c
116,fail,6345b7f49677d36bd07c5a10,EXP8c_JF,0,c47ae907357c0d96088ae8da334ab4e99c1c15d21d18eaf81d6f834049d4f730,1984.801421880722,False,click,tone_or_word,5929,[],choice-response,Lab or Lap,635300ef7f3ee915ba688e53,2022-10-21 16:28:31-04:00,debrief3,5933,435,Tone_word_debrief,Tone,c47ae,EXP8c
117,fail,6345b7f49677d36bd07c5a10,EXP8c_JF,0,c47ae907357c0d96088ae8da334ab4e99c1c15d21d18eaf81d6f834049d4f730,1984.801421880722,,keypress,TxRsp,13374,,text-response,It sounded like it,635300ef7f3ee915ba688e53,2022-10-21 16:28:31-04:00,debrief4,13377,436,Tone_word_debrief,Tone,c47ae,EXP8c
118,pass,6345b7f49677d36bd07c5a10,EXP8c_JF,0,192b3a907a2c4043c328d842f35404d580ad136c37ce2712f201ae71dffb41c3,3303.1720399856567,False,click,tone_or_word,12794,[],choice-response,Musical Tones,635300ef7f3ee915ba688e53,2022-10-21 16:28:31-04:00,debrief3,12799,423,Tone_word_debrief,Tone,192b3,EXP8c
119,pass,6345b7f49677d36bd07c5a10,EXP8c_JF,0,192b3a907a2c4043c328d842f35404d580ad136c37ce2712f201ae71dffb41c3,3303.1720399856567,,keypress,TxRsp,31128,,text-response,"Lab sounded elongated 
Lap sounded short",635300ef7f3ee915ba688e53,2022-10-21 16:28:31-04:00,debrief4,31132,424,Tone_word_debrief,Tone,192b3,EXP8c
120,pass,6345b7f49677d36bd07c5a10,EXP8c_FJ,0,d900d587ba17a4760976e631843876a7e88556559b3229bd500eb36af82a8379,2466.3254969120026,False,click,tone_or_word,15191,[],choice-response,Musical Tones,635300ef7f3ee915ba688e53,2022-10-21 16:28:31-04:00,debrief3,15205,423,Tone_word_debrief,Tone,d900d,EXP8c
121,pass,6345b7f49677d36bd07c5a10,EXP8c_FJ,0,d900d587ba17a4760976e631843876a7e88556559b3229bd500eb36af82a8379,2466.3254969120026,,keypress,TxRsp,101894,,text-response,"I perceived them more as musical tones. In all honesty, I couldn't hear the distinction when I tried listening to the sounds as words, I couldn't pick apart the  'b' and the 'p'. Once I stopped trying to hear for that difference, I was able to get a different feel for the sounds.",635300ef7f3ee915ba688e53,2022-10-21 16:28:31-04:00,debrief4,101905,424,Tone_word_debrief,Tone,d900d,EXP8c
122,fail,6345b7f49677d36bd07c5a10,EXP8c_FJ,0,f767aee16df88d92f91268667aa6371f3c287c6f11f62c514e2aaa4eed0641a2,2548.335920095444,False,click,tone_or_word,10025,[],choice-response,Musical Tones,635300ef7f3ee915ba688e53,2022-10-21 16:28:31-04:00,debrief3,10028,435,Tone_word_debrief,Tone,f767a,EXP8c
123,fail,6345b7f49677d36bd07c5a10,EXP8c_FJ,0,f767aee16df88d92f91268667aa6371f3c287c6f11f62c514e2aaa4eed0641a2,2548.335920095444,,keypress,TxRsp,22982,,text-response,"To me, it just felt like tones. I could not really hear the word.",635300ef7f3ee915ba688e53,2022-10-21 16:28:31-04:00,debrief4,23082,436,Tone_word_debrief,Tone,f767a,EXP8c
124,pass,6345b7f49677d36bd07c5a10,EXP8c_FJ,0,c3d0d9c4b75573ef21fdfa98cde13a0127fd8bea0c15a0f707b4a737d90c3584,2060.9041941165924,False,click,tone_or_word,10840,[],choice-response,Musical Tones,63769574ee2f0792ad9a3641,2022-11-17 15:11:32-05:00,debrief3,10844,423,Tone_word_debrief,Tone,c3d0d,EXP8c
125,pass,6345b7f49677d36bd07c5a10,EXP8c_FJ,0,c3d0d9c4b75573ef21fdfa98cde13a0127fd8bea0c15a0f707b4a737d90c3584,2060.9041941165924,,keypress,TxRsp,80926,,text-response,"Personally, I really couldn't hear the words through the tone. Instead, I perceived lap as a shorter tone and lab as a longer tone. Although I didn't hear the words within the tone, I used the differences between both tones to relate them to their actual word.",63769574ee2f0792ad9a3641,2022-11-17 15:11:32-05:00,debrief4,80934,424,Tone_word_debrief,Tone,c3d0d,EXP8c
126,pass,6345b7f49677d36bd07c5a10,EXP8c_FJ,0,18b6b6f7dd80c51c627c149f626cf786ec19ea58f6d7a9b787978dc69d8a3238,2069.4884560108185,False,click,tone_or_word,6040,[],choice-response,Musical Tones,63769574ee2f0792ad9a3641,2022-11-17 15:11:32-05:00,debrief3,6050,423,Tone_word_debrief,Tone,18b6b,EXP8c
127,pass,6345b7f49677d36bd07c5a10,EXP8c_FJ,0,18b6b6f7dd80c51c627c149f626cf786ec19ea58f6d7a9b787978dc69d8a3238,2069.4884560108185,,keypress,TxRsp,91274,,text-response,Although i used criteria to differentiate the two its not the same criteria  i would use to normally do so,63769574ee2f0792ad9a3641,2022-11-17 15:11:32-05:00,debrief4,91283,424,Tone_word_debrief,Tone,18b6b,EXP8c
128,pass,6345b7f49677d36bd07c5a10,EXP8c_JF,0,a0bba3a05c6ee42ca61ef12556f3d77184d360111236283cda50f53017d94a46,2208.2248928546906,False,click,tone_or_word,6346,[],choice-response,Musical Tones,63769574ee2f0792ad9a3641,2022-11-17 15:11:32-05:00,debrief3,6419,423,Tone_word_debrief,Tone,a0bba,EXP8c
129,pass,6345b7f49677d36bd07c5a10,EXP8c_JF,0,a0bba3a05c6ee42ca61ef12556f3d77184d360111236283cda50f53017d94a46,2208.2248928546906,,keypress,TxRsp,33773,,text-response,"I did not hear lab or lap. It was musical tones, and I generated clues as to which sounds corresponded with lab or lap.",63769574ee2f0792ad9a3641,2022-11-17 15:11:32-05:00,debrief4,33816,424,Tone_word_debrief,Tone,a0bba,EXP8c
130,pass,6345b7f49677d36bd07c5a10,EXP8c_JF,0,8bacfbc9162f66d3b6e1b084cd745aef30c2909c5eea1bf3abb37b8aefab8c1c,2773.594545841217,False,click,tone_or_word,15137,[],choice-response,Musical Tones,63769574ee2f0792ad9a3641,2022-11-17 15:11:32-05:00,debrief3,15138,423,Tone_word_debrief,Tone,8bacf,EXP8c
131,pass,6345b7f49677d36bd07c5a10,EXP8c_JF,0,8bacfbc9162f66d3b6e1b084cd745aef30c2909c5eea1bf3abb37b8aefab8c1c,2773.594545841217,,keypress,TxRsp,93143,,text-response,"All sound I heard had nothing to do with lab or lap. The only thing I heard is beep or like the sound of a bell, and the way to differentiate is the length of the beeping sound",63769574ee2f0792ad9a3641,2022-11-17 15:11:32-05:00,debrief4,93144,424,Tone_word_debrief,Tone,8bacf,EXP8c
132,pass,6345b7f49677d36bd07c5a10,EXP8c_JF,0,4acd3a52431c954005e081bdeb12f13a1926ad1c84445c6dd55cc528cc752aba,2508.120316982269,False,click,tone_or_word,10158,[],choice-response,Lab or Lap,63769574ee2f0792ad9a3641,2022-11-17 15:11:32-05:00,debrief3,10161,423,Tone_word_debrief,Tone,4acd3,EXP8c
133,pass,6345b7f49677d36bd07c5a10,EXP8c_JF,0,4acd3a52431c954005e081bdeb12f13a1926ad1c84445c6dd55cc528cc752aba,2508.120316982269,,keypress,TxRsp,26198,,text-response,i was instructed to listen for lab or lap so i did not consider the possibility of any sound being a musical tone,63769574ee2f0792ad9a3641,2022-11-17 15:11:32-05:00,debrief4,26203,424,Tone_word_debrief,Tone,4acd3,EXP8c
134,pass,6345b7f49677d36bd07c5a10,EXP8c_JF,0,201da5f187067e4e3a60022bfe744f08d856fe79cd2a7f675757967b74a24c9d,2165.7997250556946,False,click,tone_or_word,31141,[],choice-response,Musical Tones,63769574ee2f0792ad9a3641,2022-11-17 15:11:32-05:00,debrief3,31144,423,Tone_word_debrief,Tone,201da,EXP8c
135,pass,6345b7f49677d36bd07c5a10,EXP8c_JF,0,201da5f187067e4e3a60022bfe744f08d856fe79cd2a7f675757967b74a24c9d,2165.7997250556946,,keypress,TxRsp,24161,,text-response,I didn't understand how the tones had anything to do with words,63769574ee2f0792ad9a3641,2022-11-17 15:11:32-05:00,debrief4,24167,424,Tone_word_debrief,Tone,201da,EXP8c
136,fail,6345b7f49677d36bd07c5a10,EXP8c_FJ,0,721addc59918255a52530babed8274c0a17ca0723146252210f98cffc9176d95,1812.9468648433685,False,click,tone_or_word,14125,[],choice-response,Musical Tones,63769574ee2f0792ad9a3641,2022-11-17 15:11:32-05:00,debrief3,14128,435,Tone_word_debrief,Tone,721ad,EXP8c
137,fail,6345b7f49677d36bd07c5a10,EXP8c_FJ,0,721addc59918255a52530babed8274c0a17ca0723146252210f98cffc9176d95,1812.9468648433685,,keypress,TxRsp,20576,,text-response,It feels more as a playing note. It was hard to differentiate them both as lab or lap.,63769574ee2f0792ad9a3641,2022-11-17 15:11:32-05:00,debrief4,20579,436,Tone_word_debrief,Tone,721ad,EXP8c
138,pass,6345b7f49677d36bd07c5a10,EXP8c_FJ,0,892e0fb39e8a2831b0aba744f9169bf509ebc62cf9c69831aab9d475615543e2,2231.89359998703,False,click,tone_or_word,11578,[],choice-response,Lab or Lap,63769574ee2f0792ad9a3641,2022-11-17 15:11:32-05:00,debrief3,11586,423,Tone_word_debrief,Tone,892e0,EXP8c
139,pass,6345b7f49677d36bd07c5a10,EXP8c_FJ,0,892e0fb39e8a2831b0aba744f9169bf509ebc62cf9c69831aab9d475615543e2,2231.89359998703,,keypress,TxRsp,79523,,text-response,"I noticed that the tone for ""lab"" was slightly slower in speed than that of ""lap."" The tone for ""lap"" came to a more abrupt stop, whereas the tone for ""lab"" seemed a millisecond longer.",63769574ee2f0792ad9a3641,2022-11-17 15:11:32-05:00,debrief4,79529,424,Tone_word_debrief,Tone,892e0,EXP8c
140,fail,6345b7f49677d36bd07c5a10,EXP8c_JF,0,2c1a9ccdafc3e167e4a431ed27fa084c3397528ef0066e3bfb0893031c417175,3058.4863560199738,False,click,tone_or_word,7967,[],choice-response,Musical Tones,63769574ee2f0792ad9a3641,2022-11-17 15:11:32-05:00,debrief3,7970,435,Tone_word_debrief,Tone,2c1a9,EXP8c
141,fail,6345b7f49677d36bd07c5a10,EXP8c_JF,0,2c1a9ccdafc3e167e4a431ed27fa084c3397528ef0066e3bfb0893031c417175,3058.4863560199738,,keypress,TxRsp,245701,,text-response,sounded like a musical note being played,63769574ee2f0792ad9a3641,2022-11-17 15:11:32-05:00,debrief4,245704,436,Tone_word_debrief,Tone,2c1a9,EXP8c
142,pass,6345b7f49677d36bd07c5a10,EXP8c_JF,0,323a1558dcbc6e71a474cb0338574b406d9f2007fb8fa7e1fabe514dfd8dfe6d,2056.414497137069,False,click,tone_or_word,6637,[],choice-response,Musical Tones,63769574ee2f0792ad9a3641,2022-11-17 15:11:32-05:00,debrief3,6646,423,Tone_word_debrief,Tone,323a1,EXP8c
143,pass,6345b7f49677d36bd07c5a10,EXP8c_JF,0,323a1558dcbc6e71a474cb0338574b406d9f2007fb8fa7e1fabe514dfd8dfe6d,2056.414497137069,,keypress,TxRsp,37211,,text-response,I couldn't make out the words as well but I could kinda distinguish the words by the tones and how long the notes were. Lab felt deeper and longer while lap felt more high pitched and cut short.,63769574ee2f0792ad9a3641,2022-11-17 15:11:32-05:00,debrief4,37218,424,Tone_word_debrief,Tone,323a1,EXP8c
144,pass,6345b7f49677d36bd07c5a10,EXP8c_FJ,0,ea15bd4d2993f1f90c871c310049a8dbdbd996aea6386c1dff1d69ecc21087e2,2282.046293973923,False,click,tone_or_word,3810,[],choice-response,Lab or Lap,63769574ee2f0792ad9a3641,2022-11-17 15:11:32-05:00,debrief3,3813,423,Tone_word_debrief,Tone,ea15b,EXP8c
145,pass,6345b7f49677d36bd07c5a10,EXP8c_FJ,0,ea15bd4d2993f1f90c871c310049a8dbdbd996aea6386c1dff1d69ecc21087e2,2282.046293973923,,keypress,TxRsp,6797,,text-response,I guessed,63769574ee2f0792ad9a3641,2022-11-17 15:11:32-05:00,debrief4,6799,424,Tone_word_debrief,Tone,ea15b,EXP8c
146,fail,6345b7f49677d36bd07c5a10,EXP8c_JF,0,d0b0c4516302d0ea3a142da8c10a32732e8029bea609fca95f50bda9401ebdf6,2903.7493250370026,False,click,tone_or_word,6116,[],choice-response,Musical Tones,63769574ee2f0792ad9a3641,2022-11-17 15:11:32-05:00,debrief3,6120,435,Tone_word_debrief,Tone,d0b0c,EXP8c
147,fail,6345b7f49677d36bd07c5a10,EXP8c_JF,0,d0b0c4516302d0ea3a142da8c10a32732e8029bea609fca95f50bda9401ebdf6,2903.7493250370026,,keypress,TxRsp,7067,,text-response,they were errie,63769574ee2f0792ad9a3641,2022-11-17 15:11:32-05:00,debrief4,7073,436,Tone_word_debrief,Tone,d0b0c,EXP8c
148,fail,6345b7f49677d36bd07c5a10,EXP8c_FJ,0,07f97011e72a63334e87ec195d5440e6b1b45ce7c5838a14af258e8da63886b5,3013.3813910484314,False,click,tone_or_word,14108,[],choice-response,Musical Tones,63769574ee2f0792ad9a3641,2022-11-17 15:11:32-05:00,debrief3,14114,435,Tone_word_debrief,Tone,07f97,EXP8c
149,fail,6345b7f49677d36bd07c5a10,EXP8c_FJ,0,07f97011e72a63334e87ec195d5440e6b1b45ce7c5838a14af258e8da63886b5,3013.3813910484314,,keypress,TxRsp,143102,,text-response,It initially just sounded like different musical sounds and then at some points it sounded like lab or lap. Im not sure if its because I was trying to make myself hear the words that I started to hear it a little. It alternated back to musical sounds throughout the experiment.,63769574ee2f0792ad9a3641,2022-11-17 15:11:32-05:00,debrief4,143104,436,Tone_word_debrief,Tone,07f97,EXP8c
150,pass,6345b7f49677d36bd07c5a10,EXP8c_JF,0,515705bb13101ffd0474fd6a8b398371fb17658dcf2d6d21049c69b8b0f1c2d2,1844.1345529556274,False,click,tone_or_word,5952,[],choice-response,Musical Tones,63769574ee2f0792ad9a3641,2022-11-17 15:11:32-05:00,debrief3,5953,423,Tone_word_debrief,Tone,51570,EXP8c
151,pass,6345b7f49677d36bd07c5a10,EXP8c_JF,0,515705bb13101ffd0474fd6a8b398371fb17658dcf2d6d21049c69b8b0f1c2d2,1844.1345529556274,,keypress,TxRsp,70085,,text-response,"I did not perceive them as the words, exactly. But, I did notice one was shorter than the other. I pronounce ""lab"" as a longer word than ""lap"" so I did associate the shorter sound with  lap and vice versa,",63769574ee2f0792ad9a3641,2022-11-17 15:11:32-05:00,debrief4,70087,424,Tone_word_debrief,Tone,51570,EXP8c
152,fail,6345b7f49677d36bd07c5a10,EXP8c_FJ,0,c9bed97e507f62fa303e7fade8ba39b5372210380ba5c0d6c36fe4537a654c25,2684.8668048381805,False,click,tone_or_word,11182,[],choice-response,Musical Tones,63769574ee2f0792ad9a3641,2022-11-17 15:11:32-05:00,debrief3,11186,435,Tone_word_debrief,Tone,c9bed,EXP8c
153,fail,6345b7f49677d36bd07c5a10,EXP8c_FJ,0,c9bed97e507f62fa303e7fade8ba39b5372210380ba5c0d6c36fe4537a654c25,2684.8668048381805,,keypress,TxRsp,13820,,text-response,i felt like i could only hear musical tones,63769574ee2f0792ad9a3641,2022-11-17 15:11:32-05:00,debrief4,13909,436,Tone_word_debrief,Tone,c9bed,EXP8c
154,pass,6345b7f49677d36bd07c5a10,EXP8c_FJ,0,8bed7fa105072cf95e21df8fff9e9cfc0451e2ab50fde03eaa45683e8a69873a,2343.062731981277,False,click,tone_or_word,10307,[],choice-response,Musical Tones,63769574ee2f0792ad9a3641,2022-11-17 15:11:32-05:00,debrief3,10309,423,Tone_word_debrief,Tone,8bed7,EXP8c
155,pass,6345b7f49677d36bd07c5a10,EXP8c_FJ,0,8bed7fa105072cf95e21df8fff9e9cfc0451e2ab50fde03eaa45683e8a69873a,2343.062731981277,,keypress,TxRsp,26591,,text-response,"I chose musical tones because they didn't ""sound"" like those words at all to me",63769574ee2f0792ad9a3641,2022-11-17 15:11:32-05:00,debrief4,26594,424,Tone_word_debrief,Tone,8bed7,EXP8c
156,fail,6345b7f49677d36bd07c5a10,EXP8c_FJ,0,37262b8f7a1a5cea2ca31f2c16fbe16e82323374c01265e58bd3606e0b045621,2106.6875519752507,False,click,tone_or_word,12187,[],choice-response,Lab or Lap,63769574ee2f0792ad9a3641,2022-11-17 15:11:32-05:00,debrief3,12189,435,Tone_word_debrief,Tone,37262,EXP8c
157,fail,6345b7f49677d36bd07c5a10,EXP8c_FJ,0,37262b8f7a1a5cea2ca31f2c16fbe16e82323374c01265e58bd3606e0b045621,2106.6875519752507,,keypress,TxRsp,53581,,text-response,"I heard it as lap being more of a shorter sound while lab is longer due to the ""b"", like labuh",63769574ee2f0792ad9a3641,2022-11-17 15:11:32-05:00,debrief4,53672,436,Tone_word_debrief,Tone,37262,EXP8c
158,pass,6345b7f49677d36bd07c5a10,EXP8c_JF,0,f216f9db72848859244e999157ead0a26713f0546a7427ef611e5f7b74b4b39b,2375.9733819961552,False,click,tone_or_word,32964,[],choice-response,Musical Tones,63769574ee2f0792ad9a3641,2022-11-17 15:11:32-05:00,debrief3,32976,423,Tone_word_debrief,Tone,f216f,EXP8c
159,pass,6345b7f49677d36bd07c5a10,EXP8c_JF,0,f216f9db72848859244e999157ead0a26713f0546a7427ef611e5f7b74b4b39b,2375.9733819961552,,keypress,TxRsp,130477,,text-response,"I didn't hear ""lap"" or ""lab"" per se . I just heard the tones but I did sense differences in the pitch and duration of tone. The ""Lab"" tone seemed to assoicated with lower frequency and longer duration while the ""lap"" seemed shorter in duration with higher frequency",63769574ee2f0792ad9a3641,2022-11-17 15:11:32-05:00,debrief4,130486,424,Tone_word_debrief,Tone,f216f,EXP8c
160,pass,6345b7f49677d36bd07c5a10,EXP8c_FJ,0,1bc48f0ee234f1fe13de029a231eb4181671a389b349f45c5a84da6cd9a047b9,1904.9616758823395,False,click,tone_or_word,8555,[],choice-response,Musical Tones,63769574ee2f0792ad9a3641,2022-11-17 15:11:32-05:00,debrief3,8559,423,Tone_word_debrief,Tone,1bc48,EXP8c
161,pass,6345b7f49677d36bd07c5a10,EXP8c_FJ,0,1bc48f0ee234f1fe13de029a231eb4181671a389b349f45c5a84da6cd9a047b9,1904.9616758823395,,keypress,TxRsp,27524,,text-response,Lap felt as if it were a lower tone.,63769574ee2f0792ad9a3641,2022-11-17 15:11:32-05:00,debrief4,27527,424,Tone_word_debrief,Tone,1bc48,EXP8c
162,fail,6345b7f49677d36bd07c5a10,EXP8c_FJ,0,81a9ffcb85108548342d207a7594bf7ebe8541da1294f159f1d10a3e974df689,3739.969701051712,False,click,tone_or_word,13173,[],choice-response,Musical Tones,63769574ee2f0792ad9a3641,2022-11-17 15:11:32-05:00,debrief3,13178,435,Tone_word_debrief,Tone,81a9f,EXP8c
163,fail,6345b7f49677d36bd07c5a10,EXP8c_FJ,0,81a9ffcb85108548342d207a7594bf7ebe8541da1294f159f1d10a3e974df689,3739.969701051712,,keypress,TxRsp,7409,,text-response,short or long,63769574ee2f0792ad9a3641,2022-11-17 15:11:32-05:00,debrief4,7414,436,Tone_word_debrief,Tone,81a9f,EXP8c
164,pass,6345b7f49677d36bd07c5a10,EXP8c_JF,0,31330168aa73c07ccef793b9ef86762844dc15e992b52c30de37f6b0820d9488,2227.048168897629,False,click,tone_or_word,8259,[],choice-response,Musical Tones,63769574ee2f0792ad9a3641,2022-11-17 15:11:32-05:00,debrief3,8264,423,Tone_word_debrief,Tone,31330,EXP8c
165,pass,6345b7f49677d36bd07c5a10,EXP8c_JF,0,31330168aa73c07ccef793b9ef86762844dc15e992b52c30de37f6b0820d9488,2227.048168897629,,keypress,TxRsp,26489,,text-response,"I had a lot of trouble hearing the words ""lab"" or ""lap."" The sounds felt more like musical tones than words with meaning.",63769574ee2f0792ad9a3641,2022-11-17 15:11:32-05:00,debrief4,26491,424,Tone_word_debrief,Tone,31330,EXP8c
166,pass,6345b7f49677d36bd07c5a10,EXP8c_JF,0,fb46c77a2db91ce428214fac7f64d6b915aea4d0091a486127e29bf00edd93a6,2116.5134348869324,False,click,tone_or_word,11308,[],choice-response,Musical Tones,63769574ee2f0792ad9a3641,2022-11-17 15:11:32-05:00,debrief3,11310,423,Tone_word_debrief,Tone,fb46c,EXP8c
167,pass,6345b7f49677d36bd07c5a10,EXP8c_JF,0,fb46c77a2db91ce428214fac7f64d6b915aea4d0091a486127e29bf00edd93a6,2116.5134348869324,,keypress,TxRsp,58658,,text-response,"I perceived the sounds being played as more musical tones rather than spoken words. More specifically, I thought it was playing beeps.",63769574ee2f0792ad9a3641,2022-11-17 15:11:32-05:00,debrief4,58659,424,Tone_word_debrief,Tone,fb46c,EXP8c
168,fail,6345b7f49677d36bd07c5a10,EXP8c_FJ,0,cc81e9c4aca49cfaebcc29b46bacede669f45b9e9205deb4792db525d7cc6366,2292.888203144073,False,click,tone_or_word,9642,[],choice-response,Lab or Lap,63769574ee2f0792ad9a3641,2022-11-17 15:11:32-05:00,debrief3,9660,435,Tone_word_debrief,Tone,cc81e,EXP8c
169,fail,6345b7f49677d36bd07c5a10,EXP8c_FJ,0,cc81e9c4aca49cfaebcc29b46bacede669f45b9e9205deb4792db525d7cc6366,2292.888203144073,,keypress,TxRsp,29458,,text-response,I would perceive the sound by the pitch of the sound,63769574ee2f0792ad9a3641,2022-11-17 15:11:32-05:00,debrief4,29462,436,Tone_word_debrief,Tone,cc81e,EXP8c
170,pass,6345b7f49677d36bd07c5a10,EXP8c_JF,0,ecc207309cafe7f7a72ad6402a6b3261215868e49a85f1324c5e137a67c3fe5d,2893.490884065628,False,click,tone_or_word,10721,[],choice-response,Musical Tones,63769574ee2f0792ad9a3641,2022-11-17 15:11:32-05:00,debrief3,10725,423,Tone_word_debrief,Tone,ecc20,EXP8c
171,pass,6345b7f49677d36bd07c5a10,EXP8c_JF,0,ecc207309cafe7f7a72ad6402a6b3261215868e49a85f1324c5e137a67c3fe5d,2893.490884065628,,keypress,TxRsp,24389,,text-response,lab sounded longer and deeper than lap,63769574ee2f0792ad9a3641,2022-11-17 15:11:32-05:00,debrief4,24391,424,Tone_word_debrief,Tone,ecc20,EXP8c
172,pass,6345b7f49677d36bd07c5a10,EXP8c_JF,0,9ec338fe1a94e7fa106ebb52e1ade9da17c166a94332ce676398486430fde735,2428.8594799041753,False,click,tone_or_word,9176,[],choice-response,Musical Tones,63769574ee2f0792ad9a3641,2022-11-17 15:11:32-05:00,debrief3,9178,423,Tone_word_debrief,Tone,9ec33,EXP8c
173,pass,6345b7f49677d36bd07c5a10,EXP8c_JF,0,9ec338fe1a94e7fa106ebb52e1ade9da17c166a94332ce676398486430fde735,2428.8594799041753,,keypress,TxRsp,39326,,text-response,The tone perceived as lap was more of a quick cut off and lower tone rather than lab sounding more of a fuller not cut off tone,63769574ee2f0792ad9a3641,2022-11-17 15:11:32-05:00,debrief4,39328,424,Tone_word_debrief,Tone,9ec33,EXP8c
174,pass,6345b7f49677d36bd07c5a10,EXP8c_FJ,0,ae71dcbc5698678e7dd5559858d8d5184ee452520d5098f52394860f33903ca5,4977.0327219963065,False,click,tone_or_word,8295,[],choice-response,Musical Tones,63769574ee2f0792ad9a3641,2022-11-17 15:11:32-05:00,debrief3,8309,423,Tone_word_debrief,Tone,ae71d,EXP8c
175,pass,6345b7f49677d36bd07c5a10,EXP8c_FJ,0,ae71dcbc5698678e7dd5559858d8d5184ee452520d5098f52394860f33903ca5,4977.0327219963065,,keypress,TxRsp,940355,,text-response,"I never heard the word lap or lab, but rather the length of the musical tone.",63769574ee2f0792ad9a3641,2022-11-17 15:11:32-05:00,debrief4,940362,424,Tone_word_debrief,Tone,ae71d,EXP8c
176,pass,6345b7f49677d36bd07c5a10,EXP8c_FJ,0,13729ff8561599289706a531c3ab28c563222a053688d828fdf6cc900fc57c01,1797.8739120960236,False,click,tone_or_word,12731,[],choice-response,Musical Tones,63769574ee2f0792ad9a3641,2022-11-17 15:11:32-05:00,debrief3,12733,423,Tone_word_debrief,Tone,13729,EXP8c
177,pass,6345b7f49677d36bd07c5a10,EXP8c_FJ,0,13729ff8561599289706a531c3ab28c563222a053688d828fdf6cc900fc57c01,1797.8739120960236,,keypress,TxRsp,14768,,text-response,I can only hear the differences in tones,63769574ee2f0792ad9a3641,2022-11-17 15:11:32-05:00,debrief4,14769,424,Tone_word_debrief,Tone,13729,EXP8c
178,pass,6345b7f49677d36bd07c5a10,EXP8c_JF,0,795394b2b750b5a818d1bf0a2936dedcbfd4a7600766b610466a4e05a31887ec,2564.468030929565,False,click,tone_or_word,11617,[],choice-response,Musical Tones,63769574ee2f0792ad9a3641,2022-11-17 15:11:32-05:00,debrief3,11619,423,Tone_word_debrief,Tone,79539,EXP8c
179,pass,6345b7f49677d36bd07c5a10,EXP8c_JF,0,795394b2b750b5a818d1bf0a2936dedcbfd4a7600766b610466a4e05a31887ec,2564.468030929565,,keypress,TxRsp,17302,,text-response,I listened to more dings and buzzes than words,63769574ee2f0792ad9a3641,2022-11-17 15:11:32-05:00,debrief4,17304,424,Tone_word_debrief,Tone,79539,EXP8c
180,fail,6345b7f49677d36bd07c5a10,EXP8c_JF,0,08d1cf8282203712f1fc9e19ba1c70c0c6a7a297cb54c941d5c3018a35a233cf,3817.248404026032,False,click,tone_or_word,80594,[],choice-response,Musical Tones,63769574ee2f0792ad9a3641,2022-11-17 15:11:32-05:00,debrief3,80599,435,Tone_word_debrief,Tone,08d1c,EXP8c
181,fail,6345b7f49677d36bd07c5a10,EXP8c_JF,0,08d1cf8282203712f1fc9e19ba1c70c0c6a7a297cb54c941d5c3018a35a233cf,3817.248404026032,,keypress,TxRsp,114781,,text-response,"I really could'nt tell if they were actual words, they did sound more just like musical tones.",63769574ee2f0792ad9a3641,2022-11-17 15:11:32-05:00,debrief4,114785,436,Tone_word_debrief,Tone,08d1c,EXP8c
182,pass,6345b7f49677d36bd07c5a10,EXP8c_JF,0,0b3ef9d47a140092351ef09a3aec33f8b845376fb66971fc401e56b94129f796,1709.448224067688,False,click,tone_or_word,11383,[],choice-response,Lab or Lap,63769574ee2f0792ad9a3641,2022-11-17 15:11:32-05:00,debrief3,11385,423,Tone_word_debrief,Tone,0b3ef,EXP8c
183,pass,6345b7f49677d36bd07c5a10,EXP8c_JF,0,0b3ef9d47a140092351ef09a3aec33f8b845376fb66971fc401e56b94129f796,1709.448224067688,,keypress,TxRsp,13229,,text-response,I tried to hear the sound as a word,63769574ee2f0792ad9a3641,2022-11-17 15:11:32-05:00,debrief4,13232,424,Tone_word_debrief,Tone,0b3ef,EXP8c
184,fail,6345b7f49677d36bd07c5a10,EXP8c_FJ,0,615be62b8f3ab73a30b38657d1053a07f3f94b0e61919193f4837dd54d9599ea,1979.0350279808044,False,click,tone_or_word,5659,[],choice-response,Musical Tones,63769574ee2f0792ad9a3641,2022-11-17 15:11:32-05:00,debrief3,5663,435,Tone_word_debrief,Tone,615be,EXP8c
185,fail,6345b7f49677d36bd07c5a10,EXP8c_FJ,0,615be62b8f3ab73a30b38657d1053a07f3f94b0e61919193f4837dd54d9599ea,1979.0350279808044,,keypress,TxRsp,18955,,text-response,I heard more musical tones than words.,63769574ee2f0792ad9a3641,2022-11-17 15:11:32-05:00,debrief4,18974,436,Tone_word_debrief,Tone,615be,EXP8c
186,fail,6345b7f49677d36bd07c5a10,EXP8c_FJ,0,0594471017d668c368d8cc2915a8e03529e3a5d19c4a0fdd4073699402e38424,2067.6564421653748,False,click,tone_or_word,8292,[],choice-response,Lab or Lap,63769574ee2f0792ad9a3641,2022-11-17 15:11:32-05:00,debrief3,8297,435,Tone_word_debrief,Tone,05944,EXP8c
187,fail,6345b7f49677d36bd07c5a10,EXP8c_FJ,0,0594471017d668c368d8cc2915a8e03529e3a5d19c4a0fdd4073699402e38424,2067.6564421653748,,keypress,TxRsp,31977,,text-response,Intution,63769574ee2f0792ad9a3641,2022-11-17 15:11:32-05:00,debrief4,31984,436,Tone_word_debrief,Tone,05944,EXP8c
188,pass,6345b7f49677d36bd07c5a10,EXP8c_JF,0,55fe06e74d793d499322028e05607d7ee1219cf915a454ad1facf48763c10b27,1889.2552111148834,False,click,tone_or_word,20491,[],choice-response,Lab or Lap,6386964223574911aecf7675,2022-11-29 18:31:14-05:00,debrief3,20494,423,Tone_word_debrief,Tone,55fe0,EXP8c
189,pass,6345b7f49677d36bd07c5a10,EXP8c_JF,0,55fe06e74d793d499322028e05607d7ee1219cf915a454ad1facf48763c10b27,1889.2552111148834,,keypress,TxRsp,10570,,text-response,just like lap and lab,6386964223574911aecf7675,2022-11-29 18:31:14-05:00,debrief4,10575,424,Tone_word_debrief,Tone,55fe0,EXP8c
190,pass,6345b7f49677d36bd07c5a10,EXP8c_JF,0,54dc6c70e65bb99c64f0644d23c9fed27b49c46269c8b1d4b19978b39b928b2a,3399.405173063278,False,click,tone_or_word,22714,[],choice-response,Musical Tones,6386964223574911aecf7675,2022-11-29 18:31:14-05:00,debrief3,22716,423,Tone_word_debrief,Tone,54dc6,EXP8c
191,pass,6345b7f49677d36bd07c5a10,EXP8c_JF,0,54dc6c70e65bb99c64f0644d23c9fed27b49c46269c8b1d4b19978b39b928b2a,3399.405173063278,,keypress,TxRsp,150908,,text-response,"It sounds like a musical tone, but there's also a little bit sound of ""lab"" and ""lap"".",6386964223574911aecf7675,2022-11-29 18:31:14-05:00,debrief4,150910,424,Tone_word_debrief,Tone,54dc6,EXP8c
192,pass,6345b7f49677d36bd07c5a10,EXP8c_JF,0,6801d97cc2370a4d107ee4b27f1d4817b1d9c701357e33ab8b19a447ce21c943,2212.823501110077,False,click,tone_or_word,21161,[],choice-response,Musical Tones,6386964223574911aecf7675,2022-11-29 18:31:14-05:00,debrief3,21165,423,Tone_word_debrief,Tone,6801d,EXP8c
193,pass,6345b7f49677d36bd07c5a10,EXP8c_JF,0,6801d97cc2370a4d107ee4b27f1d4817b1d9c701357e33ab8b19a447ce21c943,2212.823501110077,,keypress,TxRsp,36001,,text-response,I did not feel the sound as lab or lap. They sounded like tones to me.,6386964223574911aecf7675,2022-11-29 18:31:14-05:00,debrief4,36005,424,Tone_word_debrief,Tone,6801d,EXP8c
194,fail,6345b7f49677d36bd07c5a10,EXP8c_JF,0,5309ae9660a2ab59d6b175e6342272478a6f2022aaebf396087b67758e8f5507,3266.395491838455,False,click,tone_or_word,17905,[],choice-response,Musical Tones,6386964223574911aecf7675,2022-11-29 18:31:14-05:00,debrief3,17923,435,Tone_word_debrief,Tone,5309a,EXP8c
195,fail,6345b7f49677d36bd07c5a10,EXP8c_JF,0,5309ae9660a2ab59d6b175e6342272478a6f2022aaebf396087b67758e8f5507,3266.395491838455,,keypress,TxRsp,49846,,text-response,i payed more attention to the musical tone and choose which one felt or sound like lap or lab,6386964223574911aecf7675,2022-11-29 18:31:14-05:00,debrief4,49863,436,Tone_word_debrief,Tone,5309a,EXP8c
196,pass,6345b7f49677d36bd07c5a10,EXP8c_JF,0,3de29a606ab5e62740f32c73aad163d7dac97eb28f13a10d188555d20bdf81de,3198.466404914856,False,click,tone_or_word,7851,[],choice-response,Musical Tones,6386964223574911aecf7675,2022-11-29 18:31:14-05:00,debrief3,7854,423,Tone_word_debrief,Tone,3de29,EXP8c
197,pass,6345b7f49677d36bd07c5a10,EXP8c_JF,0,3de29a606ab5e62740f32c73aad163d7dac97eb28f13a10d188555d20bdf81de,3198.466404914856,,keypress,TxRsp,16723,,text-response,I went off the length and pitch of the musical notes,6386964223574911aecf7675,2022-11-29 18:31:14-05:00,debrief4,16854,424,Tone_word_debrief,Tone,3de29,EXP8c
198,pass,6345b7f49677d36bd07c5a10,EXP8c_FJ,0,c4871af5de0287c57cf33fe28f8c3cf912d784528c6931c99c0ed59f78260f5d,2501.8711059093475,False,click,tone_or_word,12006,[],choice-response,Musical Tones,6386964223574911aecf7675,2022-11-29 18:31:14-05:00,debrief3,12074,423,Tone_word_debrief,Tone,c4871,EXP8c
199,pass,6345b7f49677d36bd07c5a10,EXP8c_FJ,0,c4871af5de0287c57cf33fe28f8c3cf912d784528c6931c99c0ed59f78260f5d,2501.8711059093475,,keypress,TxRsp,44684,,text-response,"Musical tones - lab seemed to last longer and fade gradually, but lap seemed to be short and abrupt.",6386964223574911aecf7675,2022-11-29 18:31:14-05:00,debrief4,44708,424,Tone_word_debrief,Tone,c4871,EXP8c
200,pass,6345b7f49677d36bd07c5a10,EXP8c_JF,0,948f7dc5c6c9eb971f5c8a2a41f093fff0cd6232e77a0299cd80fb52481a22ea,2156.373552799225,False,click,tone_or_word,8006,[],choice-response,Musical Tones,6386964223574911aecf7675,2022-11-29 18:31:14-05:00,debrief3,8010,423,Tone_word_debrief,Tone,948f7,EXP8c
201,pass,6345b7f49677d36bd07c5a10,EXP8c_JF,0,948f7dc5c6c9eb971f5c8a2a41f093fff0cd6232e77a0299cd80fb52481a22ea,2156.373552799225,,keypress,TxRsp,32498,,text-response,It sounded more like a ring tone rather than words. Could not distinguish the words out of the sound.,6386964223574911aecf7675,2022-11-29 18:31:14-05:00,debrief4,32501,424,Tone_word_debrief,Tone,948f7,EXP8c
202,pass,6345b7f49677d36bd07c5a10,EXP8c_FJ,0,a056eae07b58f37636048780ec9f417270cb9a02c7e14d71cc6a1cdcd130e628,2305.547737121582,False,click,tone_or_word,12867,[],choice-response,Musical Tones,6386964223574911aecf7675,2022-11-29 18:31:14-05:00,debrief3,12868,423,Tone_word_debrief,Tone,a056e,EXP8c
203,pass,6345b7f49677d36bd07c5a10,EXP8c_FJ,0,a056eae07b58f37636048780ec9f417270cb9a02c7e14d71cc6a1cdcd130e628,2305.547737121582,,keypress,TxRsp,84712,,text-response,"I grew up in a more international environment where people would pronounce the same words with different stresses and tones, this made it hard for me to differentiate between the tones using the words lap and lab since I could force either word onto the tone.",6386964223574911aecf7675,2022-11-29 18:31:14-05:00,debrief4,84713,424,Tone_word_debrief,Tone,a056e,EXP8c
204,fail,6345b7f49677d36bd07c5a10,EXP8c_JF,0,35b4548670a30d4c6e42547a6d08d290cb118b9169155f7478d684d64e568202,3821.1376600265503,False,click,tone_or_word,19268,[],choice-response,Musical Tones,6386964223574911aecf7675,2022-11-29 18:31:14-05:00,debrief3,19269,435,Tone_word_debrief,Tone,35b45,EXP8c
205,fail,6345b7f49677d36bd07c5a10,EXP8c_JF,0,35b4548670a30d4c6e42547a6d08d290cb118b9169155f7478d684d64e568202,3821.1376600265503,,keypress,TxRsp,11425,,text-response,feel similar,6386964223574911aecf7675,2022-11-29 18:31:14-05:00,debrief4,11540,436,Tone_word_debrief,Tone,35b45,EXP8c
206,pass,6345b7f49677d36bd07c5a10,EXP8c_JF,0,56affa027f144306c7057af0fe7004ed9cba99601544223e1f89038d9df01525,2324.3271460533138,False,click,tone_or_word,14417,[],choice-response,Musical Tones,6386964223574911aecf7675,2022-11-29 18:31:14-05:00,debrief3,14426,423,Tone_word_debrief,Tone,56aff,EXP8c
207,pass,6345b7f49677d36bd07c5a10,EXP8c_JF,0,56affa027f144306c7057af0fe7004ed9cba99601544223e1f89038d9df01525,2324.3271460533138,,keypress,TxRsp,31347,,text-response,It sounds nothing like lab or lap. It felt like I'm learning alien or some tribal language.,6386964223574911aecf7675,2022-11-29 18:31:14-05:00,debrief4,31404,424,Tone_word_debrief,Tone,56aff,EXP8c
208,pass,6345b7f49677d36bd07c5a10,EXP8c_JF,0,cb17c9e910bf3c10023a806f6c5de428a256bb244c98e09e902cc3abf473eefc,1769.1619868278506,False,click,tone_or_word,6526,[],choice-response,Musical Tones,6386964223574911aecf7675,2022-11-29 18:31:14-05:00,debrief3,6528,423,Tone_word_debrief,Tone,cb17c,EXP8c
209,pass,6345b7f49677d36bd07c5a10,EXP8c_JF,0,cb17c9e910bf3c10023a806f6c5de428a256bb244c98e09e902cc3abf473eefc,1769.1619868278506,,keypress,TxRsp,19799,,text-response,i perceive them as the shorter sound and longer one,6386964223574911aecf7675,2022-11-29 18:31:14-05:00,debrief4,19802,424,Tone_word_debrief,Tone,cb17c,EXP8c
210,fail,6345b7f49677d36bd07c5a10,EXP8c_FJ,0,1a5b1d57a2cf1af5cc51f9c623c1a9f082476138b14ec38f354f6e1213c89df3,2719.065757036209,False,click,tone_or_word,12979,[],choice-response,Musical Tones,6386964223574911aecf7675,2022-11-29 18:31:14-05:00,debrief3,12983,435,Tone_word_debrief,Tone,1a5b1,EXP8c
211,fail,6345b7f49677d36bd07c5a10,EXP8c_FJ,0,1a5b1d57a2cf1af5cc51f9c623c1a9f082476138b14ec38f354f6e1213c89df3,2719.065757036209,,keypress,TxRsp,25081,,text-response,i just heard sounds couldn't really hear any distinction,6386964223574911aecf7675,2022-11-29 18:31:14-05:00,debrief4,25085,436,Tone_word_debrief,Tone,1a5b1,EXP8c
212,pass,6345b7f49677d36bd07c5a10,EXP8c_FJ,0,07a436cbe35d2eb6c6211243f3b0fd0342c92070c0677667c6ea19231f130a34,2508.05686712265,False,click,tone_or_word,11993,[],choice-response,Musical Tones,6386964223574911aecf7675,2022-11-29 18:31:14-05:00,debrief3,11997,423,Tone_word_debrief,Tone,07a43,EXP8c
213,pass,6345b7f49677d36bd07c5a10,EXP8c_FJ,0,07a436cbe35d2eb6c6211243f3b0fd0342c92070c0677667c6ea19231f130a34,2508.05686712265,,keypress,TxRsp,18116,,text-response,Lap was shorter and lab was more drawn out,6386964223574911aecf7675,2022-11-29 18:31:14-05:00,debrief4,18120,424,Tone_word_debrief,Tone,07a43,EXP8c
214,fail,6345b7f49677d36bd07c5a10,EXP8c_FJ,0,5e66e353a8e8083e33faeebf8fcac0aadb7f69cf47506145be8ab8477b4448d2,3358.9983339309692,False,click,tone_or_word,34648,[],choice-response,Musical Tones,6386964223574911aecf7675,2022-11-29 18:31:14-05:00,debrief3,34651,435,Tone_word_debrief,Tone,5e66e,EXP8c
215,fail,6345b7f49677d36bd07c5a10,EXP8c_FJ,0,5e66e353a8e8083e33faeebf8fcac0aadb7f69cf47506145be8ab8477b4448d2,3358.9983339309692,,keypress,TxRsp,80258,,text-response,I perceived it as musical tones because it was hard to hear lap or lap. I heard lab as continuous at the end of it and lap as a cut off at the end.,6386964223574911aecf7675,2022-11-29 18:31:14-05:00,debrief4,80261,436,Tone_word_debrief,Tone,5e66e,EXP8c
216,pass,6345b7f49677d36bd07c5a10,EXP8c_JF,0,f2159846501534f8d410740ed8282f0729a1bddbcc660364f0e26f20fe7b558e,1828.7762949466705,False,click,tone_or_word,7892,[],choice-response,Musical Tones,6386964223574911aecf7675,2022-11-29 18:31:14-05:00,debrief3,7896,423,Tone_word_debrief,Tone,f2159,EXP8c
217,pass,6345b7f49677d36bd07c5a10,EXP8c_JF,0,f2159846501534f8d410740ed8282f0729a1bddbcc660364f0e26f20fe7b558e,1828.7762949466705,,keypress,TxRsp,32574,,text-response,"I associated the sounds in terms of length. Lab was more drawn out, and lap was cut short.",6386964223574911aecf7675,2022-11-29 18:31:14-05:00,debrief4,32581,424,Tone_word_debrief,Tone,f2159,EXP8c
218,fail,6345b7f49677d36bd07c5a10,EXP8c_FJ,0,115552330f60ecea98884bb1e803080ba144d66b54f0d049cdfb11cfab51abbb,2653.606148004532,False,click,tone_or_word,15783,[],choice-response,Lab or Lap,6386964223574911aecf7675,2022-11-29 18:31:14-05:00,debrief3,15786,435,Tone_word_debrief,Tone,11555,EXP8c
219,fail,6345b7f49677d36bd07c5a10,EXP8c_FJ,0,115552330f60ecea98884bb1e803080ba144d66b54f0d049cdfb11cfab51abbb,2653.606148004532,,keypress,TxRsp,51704,,text-response,I didn't relate them to any music tone. I was more focusing on the phoneme.,6386964223574911aecf7675,2022-11-29 18:31:14-05:00,debrief4,51707,436,Tone_word_debrief,Tone,11555,EXP8c
220,fail,6345b7f49677d36bd07c5a10,EXP8c_FJ,0,7534034eabb553ffd416c6999d1d60042a4f1698bb41416c52c98d37cbf10842,2321.8557279109955,False,click,tone_or_word,17075,[],choice-response,Musical Tones,6386964223574911aecf7675,2022-11-29 18:31:14-05:00,debrief3,17078,435,Tone_word_debrief,Tone,75340,EXP8c
221,fail,6345b7f49677d36bd07c5a10,EXP8c_FJ,0,7534034eabb553ffd416c6999d1d60042a4f1698bb41416c52c98d37cbf10842,2321.8557279109955,,keypress,TxRsp,98633,,text-response,"I think the sound seemed to be more musical tones because of the way they sounded and not imagining as a something else, I get if I was given a perspective of the sound being used in a game as lab or lap maybe it would have been different",6386964223574911aecf7675,2022-11-29 18:31:14-05:00,debrief4,98638,436,Tone_word_debrief,Tone,75340,EXP8c
222,fail,6345b7f49677d36bd07c5a10,EXP8c_FJ,0,210f3d05cbca3240f0b4fe36fb9475c29959355752fc9cacfc301fb31c5e3299,1900.344974040985,False,click,tone_or_word,6110,[],choice-response,Musical Tones,6386964223574911aecf7675,2022-11-29 18:31:14-05:00,debrief3,6115,435,Tone_word_debrief,Tone,210f3,EXP8c
223,fail,6345b7f49677d36bd07c5a10,EXP8c_FJ,0,210f3d05cbca3240f0b4fe36fb9475c29959355752fc9cacfc301fb31c5e3299,1900.344974040985,,keypress,TxRsp,17787,,text-response,i dont understand,6386964223574911aecf7675,2022-11-29 18:31:14-05:00,debrief4,17791,436,Tone_word_debrief,Tone,210f3,EXP8c
224,pass,6345b7f49677d36bd07c5a10,EXP8c_JF,0,7fd14880ec504f30f7b21ea6ecd0a222e0b0bb5f65355d2255c113834946aedb,2217.97971200943,False,click,tone_or_word,11745,[],choice-response,Lab or Lap,6386964223574911aecf7675,2022-11-29 18:31:14-05:00,debrief3,11749,423,Tone_word_debrief,Tone,7fd14,EXP8c
225,pass,6345b7f49677d36bd07c5a10,EXP8c_JF,0,7fd14880ec504f30f7b21ea6ecd0a222e0b0bb5f65355d2255c113834946aedb,2217.97971200943,,keypress,TxRsp,26239,,text-response,the lab sound felt more round and whole while the lap sound felt hollow and staccato,6386964223574911aecf7675,2022-11-29 18:31:14-05:00,debrief4,26244,424,Tone_word_debrief,Tone,7fd14,EXP8c
226,pass,6345b7f49677d36bd07c5a10,EXP8c_FJ,0,ee00291adeb78ed99d45866d5c784ac0c65bb5758caefed15e1c688b456df530,2076.4090430736537,False,click,tone_or_word,11461,[],choice-response,Musical Tones,6386964223574911aecf7675,2022-11-29 18:31:14-05:00,debrief3,11464,423,Tone_word_debrief,Tone,ee002,EXP8c
227,pass,6345b7f49677d36bd07c5a10,EXP8c_FJ,0,ee00291adeb78ed99d45866d5c784ac0c65bb5758caefed15e1c688b456df530,2076.4090430736537,,keypress,TxRsp,21942,,text-response,The first time I heard them as just sounds that sounded like bells or sine waves.,6386964223574911aecf7675,2022-11-29 18:31:14-05:00,debrief4,21944,424,Tone_word_debrief,Tone,ee002,EXP8c
228,pass,6345b7f49677d36bd07c5a10,EXP8c_JF,0,0149872243ec5e7375a543a23a1789032aba2e051c0b6e21a46605f3c5c135d9,2684.1431109905247,False,click,tone_or_word,47274,[],choice-response,Lab or Lap,6386964223574911aecf7675,2022-11-29 18:31:14-05:00,debrief3,47277,423,Tone_word_debrief,Tone,01498,EXP8c
229,pass,6345b7f49677d36bd07c5a10,EXP8c_JF,0,0149872243ec5e7375a543a23a1789032aba2e051c0b6e21a46605f3c5c135d9,2684.1431109905247,,keypress,TxRsp,184926,,text-response,"I actually feel a bit of both. It did sound like musical tones varying in length and tone, however I also ""felt"" the sound as being lab and lap. For the most part, I was relying on length to determine the words, but I also wasn't fully ignoring the sound aspect hence why I chose ""feel"" over ""musical tones"". I tried to combine both as much as I could, though the noise in my environment may have skewed my perception.",6386964223574911aecf7675,2022-11-29 18:31:14-05:00,debrief4,184933,424,Tone_word_debrief,Tone,01498,EXP8c
230,pass,6345b7f49677d36bd07c5a10,EXP8c_JF,0,a0ec852080d12919142cacd7d364da78ef68ebe78160d1e7335d9d8961823f6e,2160.134492874145,False,click,tone_or_word,13731,[],choice-response,Musical Tones,6386964223574911aecf7675,2022-11-29 18:31:14-05:00,debrief3,13734,423,Tone_word_debrief,Tone,a0ec8,EXP8c
231,pass,6345b7f49677d36bd07c5a10,EXP8c_JF,0,a0ec852080d12919142cacd7d364da78ef68ebe78160d1e7335d9d8961823f6e,2160.134492874145,,keypress,TxRsp,17008,,text-response,"It felt more like a sound than a word, it was hard do discern",6386964223574911aecf7675,2022-11-29 18:31:14-05:00,debrief4,17010,424,Tone_word_debrief,Tone,a0ec8,EXP8c
232,fail,6345b7f49677d36bd07c5a10,EXP8c_JF,0,aa20e50a8dcb55c2544d6f334b4e6b3b1d29b30304577d73f11fefd2a18e7b26,2359.952949047089,False,click,tone_or_word,15853,[],choice-response,Musical Tones,6386964223574911aecf7675,2022-11-29 18:31:14-05:00,debrief3,15858,435,Tone_word_debrief,Tone,aa20e,EXP8c
233,fail,6345b7f49677d36bd07c5a10,EXP8c_JF,0,aa20e50a8dcb55c2544d6f334b4e6b3b1d29b30304577d73f11fefd2a18e7b26,2359.952949047089,,keypress,TxRsp,39986,,text-response,i could not make out the words in the notes but i could tell which tone felt longer and then i would put the longer with lab and shorter with lap,6386964223574911aecf7675,2022-11-29 18:31:14-05:00,debrief4,39990,436,Tone_word_debrief,Tone,aa20e,EXP8c
234,pass,6345b7f49677d36bd07c5a10,EXP8c_FJ,0,b0547fbe0e694102e990057d1e3a21a45808f18db5941e5ba6ba1bd7816e0846,2952.9621369838715,False,click,tone_or_word,29047,[],choice-response,Musical Tones,6386964223574911aecf7675,2022-11-29 18:31:14-05:00,debrief3,29052,423,Tone_word_debrief,Tone,b0547,EXP8c
235,pass,6345b7f49677d36bd07c5a10,EXP8c_FJ,0,b0547fbe0e694102e990057d1e3a21a45808f18db5941e5ba6ba1bd7816e0846,2952.9621369838715,,keypress,TxRsp,34605,,text-response,I barely knew what I was hearing. I tried to listen more to the ends of the words in order to try and guess correctly.,6386964223574911aecf7675,2022-11-29 18:31:14-05:00,debrief4,34625,424,Tone_word_debrief,Tone,b0547,EXP8c
236,pass,6345b7f49677d36bd07c5a10,EXP8c_FJ,0,7dd9efe414d17044647548de0b41652641f5adbbc34a0b9f4fb6f5b04c4ef907,2235.7820689678188,False,click,tone_or_word,22957,[],choice-response,Lab or Lap,6386964223574911aecf7675,2022-11-29 18:31:14-05:00,debrief3,22960,423,Tone_word_debrief,Tone,7dd9e,EXP8c
237,pass,6345b7f49677d36bd07c5a10,EXP8c_FJ,0,7dd9efe414d17044647548de0b41652641f5adbbc34a0b9f4fb6f5b04c4ef907,2235.7820689678188,,keypress,TxRsp,45610,,text-response,"When listening to the tones, I could imagine someone physically saying either lab or lap. I felt like I could have been the one saying the tone, which helped me in my choices.",6386964223574911aecf7675,2022-11-29 18:31:14-05:00,debrief4,45611,424,Tone_word_debrief,Tone,7dd9e,EXP8c
238,pass,6345b7f49677d36bd07c5a10,EXP8c_JF,0,a394b567733119f5352243056b44ef3d8ac97d257aede33cf4259855236c2121,2148.988032817841,False,click,tone_or_word,7823,[],choice-response,Lab or Lap,6386964223574911aecf7675,2022-11-29 18:31:14-05:00,debrief3,7826,423,Tone_word_debrief,Tone,a394b,EXP8c
239,pass,6345b7f49677d36bd07c5a10,EXP8c_JF,0,a394b567733119f5352243056b44ef3d8ac97d257aede33cf4259855236c2121,2148.988032817841,,keypress,TxRsp,19375,,text-response,"When hearing the sounds, I was listening for a word and not a musical tone.",6386964223574911aecf7675,2022-11-29 18:31:14-05:00,debrief4,19377,424,Tone_word_debrief,Tone,a394b,EXP8c
240,pass,6345b7f49677d36bd07c5a10,EXP8c_FJ,0,a6ce3dcfa74e6a60230079715c959b2e03a5a7424bbdf62ef426e7ffbad928cd,5228.0405201911935,False,click,tone_or_word,8549,[],choice-response,Musical Tones,6386964223574911aecf7675,2022-11-29 18:31:14-05:00,debrief3,8551,423,Tone_word_debrief,Tone,a6ce3,EXP8c
241,pass,6345b7f49677d36bd07c5a10,EXP8c_FJ,0,a6ce3dcfa74e6a60230079715c959b2e03a5a7424bbdf62ef426e7ffbad928cd,5228.0405201911935,,keypress,TxRsp,15045,,text-response,I heard a tone and tried to associate it with a word.,6386964223574911aecf7675,2022-11-29 18:31:14-05:00,debrief4,15050,424,Tone_word_debrief,Tone,a6ce3,EXP8c
242,pass,6345b7f49677d36bd07c5a10,EXP8c_JF,0,de73987caa830c474375bfd6784542f2e648f0fe342d4fc233f3fdb61e6a0075,2073.2518091201778,False,click,tone_or_word,9109,[],choice-response,Musical Tones,6386964223574911aecf7675,2022-11-29 18:31:14-05:00,debrief3,9112,423,Tone_word_debrief,Tone,de739,EXP8c
243,pass,6345b7f49677d36bd07c5a10,EXP8c_JF,0,de73987caa830c474375bfd6784542f2e648f0fe342d4fc233f3fdb61e6a0075,2073.2518091201778,,keypress,TxRsp,31156,,text-response,"I could not tell or feel the sound as being lab or lap, just one sound being slightly longer than the other.",6386964223574911aecf7675,2022-11-29 18:31:14-05:00,debrief4,31159,424,Tone_word_debrief,Tone,de739,EXP8c
244,fail,6345b7f49677d36bd07c5a10,EXP8c_FJ,0,a75861f0f0818070499e350cd525a417d087b7abc15871cd4c01b21002249100,2241.662197113037,False,click,tone_or_word,5292,[],choice-response,Musical Tones,6386964223574911aecf7675,2022-11-29 18:31:14-05:00,debrief3,5297,435,Tone_word_debrief,Tone,a7586,EXP8c
245,fail,6345b7f49677d36bd07c5a10,EXP8c_FJ,0,a75861f0f0818070499e350cd525a417d087b7abc15871cd4c01b21002249100,2241.662197113037,,keypress,TxRsp,29518,,text-response,it was harder to differentiate musical tones,6386964223574911aecf7675,2022-11-29 18:31:14-05:00,debrief4,29523,436,Tone_word_debrief,Tone,a7586,EXP8c
246,pass,6345b7f49677d36bd07c5a10,EXP8c_JF,0,9742aa21e4dda83a1328160377706691262873f7fa050e218a0a93f255f7b009,2147.5443160533905,False,click,tone_or_word,10634,[],choice-response,Musical Tones,6386964223574911aecf7675,2022-11-29 18:31:14-05:00,debrief3,10640,423,Tone_word_debrief,Tone,9742a,EXP8c
247,pass,6345b7f49677d36bd07c5a10,EXP8c_JF,0,9742aa21e4dda83a1328160377706691262873f7fa050e218a0a93f255f7b009,2147.5443160533905,,keypress,TxRsp,46156,,text-response,I did not really feel it as lab or lap because I associate the sound of lap or lab to the noise but they're nothing alike. So for me the noise just sounded like a musical note.,6386964223574911aecf7675,2022-11-29 18:31:14-05:00,debrief4,46479,424,Tone_word_debrief,Tone,9742a,EXP8c
248,pass,6345b7f49677d36bd07c5a10,EXP8c_FJ,0,408b18e187e0f42ac77cd5d8aa36aa88ef848b193ca3bba14dedd870283e33ef,2234.5926768779755,False,click,tone_or_word,15856,[],choice-response,Lab or Lap,6386964223574911aecf7675,2022-11-29 18:31:14-05:00,debrief3,15861,423,Tone_word_debrief,Tone,408b1,EXP8c
249,pass,6345b7f49677d36bd07c5a10,EXP8c_FJ,0,408b18e187e0f42ac77cd5d8aa36aa88ef848b193ca3bba14dedd870283e33ef,2234.5926768779755,,keypress,TxRsp,31505,,text-response,"I understood lab to be a more drawn out tone, while lap was shorter and quicker",6386964223574911aecf7675,2022-11-29 18:31:14-05:00,debrief4,31512,424,Tone_word_debrief,Tone,408b1,EXP8c
250,pass,6345b7f49677d36bd07c5a10,EXP8c_JF,0,d3ced2d4761c651e7d400f9b2fae0d52729ecdc9bcf06c36bcd894e2d5e6cd2d,2435.268744945526,False,click,tone_or_word,5123,[],choice-response,Musical Tones,6386964223574911aecf7675,2022-11-29 18:31:14-05:00,debrief3,5147,423,Tone_word_debrief,Tone,d3ced,EXP8c
251,pass,6345b7f49677d36bd07c5a10,EXP8c_JF,0,d3ced2d4761c651e7d400f9b2fae0d52729ecdc9bcf06c36bcd894e2d5e6cd2d,2435.268744945526,,keypress,TxRsp,9950,,text-response,,6386964223574911aecf7675,2022-11-29 18:31:14-05:00,debrief4,9954,424,Tone_word_debrief,Tone,d3ced,EXP8c
252,pass,6345b7f49677d36bd07c5a10,EXP8c_FJ,0,19c0861916824c4d42b0c5713f3b9dd7634fdd9406f50345723c10f9e44699b0,2475.221438884735,False,click,tone_or_word,10726,[],choice-response,Musical Tones,6386964223574911aecf7675,2022-11-29 18:31:14-05:00,debrief3,10730,423,Tone_word_debrief,Tone,19c08,EXP8c
253,pass,6345b7f49677d36bd07c5a10,EXP8c_FJ,0,19c0861916824c4d42b0c5713f3b9dd7634fdd9406f50345723c10f9e44699b0,2475.221438884735,,keypress,TxRsp,53921,,text-response,"I felt as if they were musical tones, one being shorter/quicker than the other. The quicker one was ""lap"" while the longer one was ""lab"".",6386964223574911aecf7675,2022-11-29 18:31:14-05:00,debrief4,53926,424,Tone_word_debrief,Tone,19c08,EXP8c
254,pass,6345b7f49677d36bd07c5a10,EXP8c_FJ,0,c1da8acf25dae5cf57c981206c79ef8b838b86570e8dd64ced015fbebecc1a09,2311.2823600769048,False,click,tone_or_word,11746,[],choice-response,Musical Tones,6386964223574911aecf7675,2022-11-29 18:31:14-05:00,debrief3,11750,423,Tone_word_debrief,Tone,c1da8,EXP8c
255,pass,6345b7f49677d36bd07c5a10,EXP8c_FJ,0,c1da8acf25dae5cf57c981206c79ef8b838b86570e8dd64ced015fbebecc1a09,2311.2823600769048,,keypress,TxRsp,59375,,text-response,I did not really feel like there was a word behind the sound or really understood what they represented. I felt like the one that felt slightly longer was typically the lab but that wasnt always correct as i saw in the part where we got feedback,6386964223574911aecf7675,2022-11-29 18:31:14-05:00,debrief4,59379,424,Tone_word_debrief,Tone,c1da8,EXP8c
256,fail,6345b7f49677d36bd07c5a10,EXP8c_FJ,0,4d2d2c4a17b12549114b91bc20aeced46b1d705e32a6c2fa5d88fa317a4f0b24,1987.7250800132751,False,click,tone_or_word,7277,[],choice-response,Musical Tones,6386964223574911aecf7675,2022-11-29 18:31:14-05:00,debrief3,7279,435,Tone_word_debrief,Tone,4d2d2,EXP8c
257,fail,6345b7f49677d36bd07c5a10,EXP8c_FJ,0,4d2d2c4a17b12549114b91bc20aeced46b1d705e32a6c2fa5d88fa317a4f0b24,1987.7250800132751,,keypress,TxRsp,41060,,text-response,"It sounded like a certain tone of ""beeps"" moreso than it sounding like lab/lap. I did try to listen to it as lab/lap but found that was more difficult for me to process.",6386964223574911aecf7675,2022-11-29 18:31:14-05:00,debrief4,41062,436,Tone_word_debrief,Tone,4d2d2,EXP8c
258,fail,6345b7f49677d36bd07c5a10,EXP8c_JF,0,e8e502753ef1e7a55b96716e16f38a595689a5915c9b12758933667f25aa1c2e,2502.023650169373,False,click,tone_or_word,6646,[],choice-response,Musical Tones,6386964223574911aecf7675,2022-11-29 18:31:14-05:00,debrief3,6651,435,Tone_word_debrief,Tone,e8e50,EXP8c
259,fail,6345b7f49677d36bd07c5a10,EXP8c_JF,0,e8e502753ef1e7a55b96716e16f38a595689a5915c9b12758933667f25aa1c2e,2502.023650169373,,keypress,TxRsp,22894,,text-response,I did not hear the original words at all. All I heard was musical tones,6386964223574911aecf7675,2022-11-29 18:31:14-05:00,debrief4,22899,436,Tone_word_debrief,Tone,e8e50,EXP8c
260,fail,6345b7f49677d36bd07c5a10,EXP8c_JF,0,11f8eae6b7ef223912a6e5c46c6c0f4898c0d0eb191b3a63c01d81171adfddb3,2562.9561688899994,False,click,tone_or_word,15916,[],choice-response,Musical Tones,6386964223574911aecf7675,2022-11-29 18:31:14-05:00,debrief3,15922,435,Tone_word_debrief,Tone,11f8e,EXP8c
261,fail,6345b7f49677d36bd07c5a10,EXP8c_JF,0,11f8eae6b7ef223912a6e5c46c6c0f4898c0d0eb191b3a63c01d81171adfddb3,2562.9561688899994,,keypress,TxRsp,40402,,text-response,I perceived it as more musical tones and I only thought that the sound with the longer tone would be lab and the one with the shorter tone would be lap,6386964223574911aecf7675,2022-11-29 18:31:14-05:00,debrief4,40408,436,Tone_word_debrief,Tone,11f8e,EXP8c
262,pass,6345b7f49677d36bd07c5a10,EXP8c_FJ,0,df539d3533b6d6dbdc7d9fb9ef15a864b8fa24d9725d6041c0282fe5c59872f5,2191.195503950119,False,click,tone_or_word,17446,[],choice-response,Musical Tones,6386964223574911aecf7675,2022-11-29 18:31:14-05:00,debrief3,17450,423,Tone_word_debrief,Tone,df539,EXP8c
263,pass,6345b7f49677d36bd07c5a10,EXP8c_FJ,0,df539d3533b6d6dbdc7d9fb9ef15a864b8fa24d9725d6041c0282fe5c59872f5,2191.195503950119,,keypress,TxRsp,86118,,text-response,"It felt more like musical tones as I can't really hear the word lab within the tone. However, the length of the tone corresponded with how each word is said, which can be the 'feel' aspect of it being lab and lap.",6386964223574911aecf7675,2022-11-29 18:31:14-05:00,debrief4,86124,424,Tone_word_debrief,Tone,df539,EXP8c
264,fail,6345b7f49677d36bd07c5a10,EXP8c_JF,0,309a3bc286a88629cf3a5f2672952b687e1f9bf1e321f35dc7bf12ef6cc602c3,1887.0453720092773,False,click,tone_or_word,2863,[],choice-response,Lab or Lap,6386964223574911aecf7675,2022-11-29 18:31:14-05:00,debrief3,2864,435,Tone_word_debrief,Tone,309a3,EXP8c
265,fail,6345b7f49677d36bd07c5a10,EXP8c_JF,0,309a3bc286a88629cf3a5f2672952b687e1f9bf1e321f35dc7bf12ef6cc602c3,1887.0453720092773,,keypress,TxRsp,20862,,text-response,VERY NICE,6386964223574911aecf7675,2022-11-29 18:31:14-05:00,debrief4,20865,436,Tone_word_debrief,Tone,309a3,EXP8c
266,pass,6345b7f49677d36bd07c5a10,EXP8c_FJ,0,d0d665f3056166ffd8ac6d197562c1399cc1d8ae5da4abf4bd244cb5874937a5,2064.001610994339,False,click,tone_or_word,6015,[],choice-response,Musical Tones,6386964223574911aecf7675,2022-11-29 18:31:14-05:00,debrief3,6019,423,Tone_word_debrief,Tone,d0d66,EXP8c
267,pass,6345b7f49677d36bd07c5a10,EXP8c_FJ,0,d0d665f3056166ffd8ac6d197562c1399cc1d8ae5da4abf4bd244cb5874937a5,2064.001610994339,,keypress,TxRsp,38033,,text-response,"There were no similarities to ""lap"" or ""lab"", more like short or long notes",6386964223574911aecf7675,2022-11-29 18:31:14-05:00,debrief4,38141,424,Tone_word_debrief,Tone,d0d66,EXP8c
268,pass,6345b7f49677d36bd07c5a10,EXP8c_JF,0,d2f2385910338f6eb7643a4455ef1f1dab996a1ce76d97d3efc8594bcfc24a58,2536.9241609573364,False,click,tone_or_word,7542,[],choice-response,Lab or Lap,6386964223574911aecf7675,2022-11-29 18:31:14-05:00,debrief3,7543,423,Tone_word_debrief,Tone,d2f23,EXP8c
269,pass,6345b7f49677d36bd07c5a10,EXP8c_JF,0,d2f2385910338f6eb7643a4455ef1f1dab996a1ce76d97d3efc8594bcfc24a58,2536.9241609573364,,keypress,TxRsp,12936,,text-response,I could hear the word in the tones,6386964223574911aecf7675,2022-11-29 18:31:14-05:00,debrief4,12938,424,Tone_word_debrief,Tone,d2f23,EXP8c
270,pass,6345b7f49677d36bd07c5a10,EXP8c_JF,0,7ad2a1840230bbcede269e64d075903c699b72e1d21b079dbeffca68ff743f39,6706.148766994476,False,click,tone_or_word,12201,[],choice-response,Musical Tones,6386964223574911aecf7675,2022-11-29 18:31:14-05:00,debrief3,12204,423,Tone_word_debrief,Tone,7ad2a,EXP8c
271,pass,6345b7f49677d36bd07c5a10,EXP8c_JF,0,7ad2a1840230bbcede269e64d075903c699b72e1d21b079dbeffca68ff743f39,6706.148766994476,,keypress,TxRsp,44894,,text-response,"I perceived/felt them to be musical tones, but understood how they can be interpreted or understood as the words ""lab"" and ""lap.""",6386964223574911aecf7675,2022-11-29 18:31:14-05:00,debrief4,44897,424,Tone_word_debrief,Tone,7ad2a,EXP8c
272,pass,6345b7f49677d36bd07c5a10,EXP8c_JF,0,6de9a2464473486a7de5521eae806481711d65b67adc486f61b020e94f9df550,2169.4044420719147,False,click,tone_or_word,12454,[],choice-response,Musical Tones,6386964223574911aecf7675,2022-11-29 18:31:14-05:00,debrief3,12459,423,Tone_word_debrief,Tone,6de9a,EXP8c
273,pass,6345b7f49677d36bd07c5a10,EXP8c_JF,0,6de9a2464473486a7de5521eae806481711d65b67adc486f61b020e94f9df550,2169.4044420719147,,keypress,TxRsp,55700,,text-response,Whether the sound were in full notes that was played out or if it sounded like note with an attack (not played as a full note),6386964223574911aecf7675,2022-11-29 18:31:14-05:00,debrief4,55706,424,Tone_word_debrief,Tone,6de9a,EXP8c
274,pass,6345b7f49677d36bd07c5a10,EXP8c_FJ,0,31d665e496ba0d9990f9d736ffa0a9487203ddd8d57f0764519523c3f6a0db21,2148.6417198181152,False,click,tone_or_word,11641,[],choice-response,Musical Tones,6386964223574911aecf7675,2022-11-29 18:31:14-05:00,debrief3,11657,423,Tone_word_debrief,Tone,31d66,EXP8c
275,pass,6345b7f49677d36bd07c5a10,EXP8c_FJ,0,31d665e496ba0d9990f9d736ffa0a9487203ddd8d57f0764519523c3f6a0db21,2148.6417198181152,,keypress,TxRsp,25289,,text-response,I heard the tune because I did not hear the word at all,6386964223574911aecf7675,2022-11-29 18:31:14-05:00,debrief4,25295,424,Tone_word_debrief,Tone,31d66,EXP8c
276,fail,6345b7f49677d36bd07c5a10,EXP8c_JF,0,a7c3e74787dcdc5d2ff8dc7531d18b00c57d4a15354931a60f47ed72d9f73f3b,3564.2301421165466,False,click,tone_or_word,44284,[],choice-response,Lab or Lap,6386964223574911aecf7675,2022-11-29 18:31:14-05:00,debrief3,44288,435,Tone_word_debrief,Tone,a7c3e,EXP8c
277,fail,6345b7f49677d36bd07c5a10,EXP8c_JF,0,a7c3e74787dcdc5d2ff8dc7531d18b00c57d4a15354931a60f47ed72d9f73f3b,3564.2301421165466,,keypress,TxRsp,63512,,text-response,"little bit difference between lab and lap, but i cannot pronounce",6386964223574911aecf7675,2022-11-29 18:31:14-05:00,debrief4,63537,436,Tone_word_debrief,Tone,a7c3e,EXP8c
278,pass,6345b7f49677d36bd07c5a10,EXP8c_JF,0,31352e439f7aab159438a884ecdb907e7a338c51628ab66c552f6d46bf4a5b4d,2572.783361911773,False,click,tone_or_word,5607,[],choice-response,Musical Tones,6386964223574911aecf7675,2022-11-29 18:31:14-05:00,debrief3,5609,423,Tone_word_debrief,Tone,31352,EXP8c
279,pass,6345b7f49677d36bd07c5a10,EXP8c_JF,0,31352e439f7aab159438a884ecdb907e7a338c51628ab66c552f6d46bf4a5b4d,2572.783361911773,,keypress,TxRsp,31094,,text-response,The audio did not sound like they were saying lab or lap. All I heard were musical tones with different durations.,6386964223574911aecf7675,2022-11-29 18:31:14-05:00,debrief4,31097,424,Tone_word_debrief,Tone,31352,EXP8c
280,pass,6345b7f49677d36bd07c5a10,EXP8c_JF,0,16a45bb184bdf62e695f706eac62939f01d5e3df793e88e80e26bfbae68c25b8,3031.5327072143555,False,click,tone_or_word,12747,[],choice-response,Musical Tones,6386964223574911aecf7675,2022-11-29 18:31:14-05:00,debrief3,12750,423,Tone_word_debrief,Tone,16a45,EXP8c
281,pass,6345b7f49677d36bd07c5a10,EXP8c_JF,0,16a45bb184bdf62e695f706eac62939f01d5e3df793e88e80e26bfbae68c25b8,3031.5327072143555,,keypress,TxRsp,84084,,text-response,"without actual pronounciation, I feel like they are a matter of muscial tone",6386964223574911aecf7675,2022-11-29 18:31:14-05:00,debrief4,84086,424,Tone_word_debrief,Tone,16a45,EXP8c
282,pass,6345b7f49677d36bd07c5a10,EXP8c_FJ,0,c0396b8270d88fa79482a3c7c5e52203f83e243e89782c6ef2f5e05f9989bea8,2545.6173219680786,False,click,tone_or_word,11506,[],choice-response,Lab or Lap,6386964223574911aecf7675,2022-11-29 18:31:14-05:00,debrief3,11516,423,Tone_word_debrief,Tone,c0396,EXP8c
283,pass,6345b7f49677d36bd07c5a10,EXP8c_FJ,0,c0396b8270d88fa79482a3c7c5e52203f83e243e89782c6ef2f5e05f9989bea8,2545.6173219680786,,keypress,TxRsp,25988,,text-response,The longer tone connected with the sound of lab and the shorter tone felt more like lap,6386964223574911aecf7675,2022-11-29 18:31:14-05:00,debrief4,25989,424,Tone_word_debrief,Tone,c0396,EXP8c
284,pass,6345b7f49677d36bd07c5a10,EXP8c_JF,0,1b5a9ff9f010e046efd4e8c8dfce266fefc223d403b07f984c19cb391b83d3b7,2095.4812848567967,False,click,tone_or_word,9010,[],choice-response,Musical Tones,6386964223574911aecf7675,2022-11-29 18:31:14-05:00,debrief3,9014,423,Tone_word_debrief,Tone,1b5a9,EXP8c
285,pass,6345b7f49677d36bd07c5a10,EXP8c_JF,0,1b5a9ff9f010e046efd4e8c8dfce266fefc223d403b07f984c19cb391b83d3b7,2095.4812848567967,,keypress,TxRsp,18770,,text-response,"I did not perceive the sounds as words, only musical tones.",6386964223574911aecf7675,2022-11-29 18:31:14-05:00,debrief4,18772,424,Tone_word_debrief,Tone,1b5a9,EXP8c
286,pass,6345b7f49677d36bd07c5a10,EXP8c_FJ,0,673501b3ea704ef6b017b403e5569f890a696351d0d93fded3f1106adc307976,2496.297080993653,False,click,tone_or_word,5835,[],choice-response,Lab or Lap,6386964223574911aecf7675,2022-11-29 18:31:14-05:00,debrief3,5837,423,Tone_word_debrief,Tone,67350,EXP8c
287,pass,6345b7f49677d36bd07c5a10,EXP8c_FJ,0,673501b3ea704ef6b017b403e5569f890a696351d0d93fded3f1106adc307976,2496.297080993653,,keypress,TxRsp,115160,,text-response,"As an english speaker, I perceived the sounds as either being lab or lap as I know the enunciation of those words mimiced the patterns of those sounds. Lap is a very short word when spoken whilst lab has a carrying ""aaa"" sound.",6386964223574911aecf7675,2022-11-29 18:31:14-05:00,debrief4,115163,424,Tone_word_debrief,Tone,67350,EXP8c
288,pass,6345b7f49677d36bd07c5a10,EXP8c_FJ,0,6529547a76dab3f39e893dd7371de4a006dfe65208cc43d8b33a9399f45bb61b,4998.080670118332,False,click,tone_or_word,6830,[],choice-response,Musical Tones,6386964223574911aecf7675,2022-11-29 18:31:14-05:00,debrief3,6831,423,Tone_word_debrief,Tone,65295,EXP8c
289,pass,6345b7f49677d36bd07c5a10,EXP8c_FJ,0,6529547a76dab3f39e893dd7371de4a006dfe65208cc43d8b33a9399f45bb61b,4998.080670118332,,keypress,TxRsp,19492,,text-response,I couldn't hear lap or lab in the sounds,6386964223574911aecf7675,2022-11-29 18:31:14-05:00,debrief4,19494,424,Tone_word_debrief,Tone,65295,EXP8c
290,fail,6345b7f49677d36bd07c5a10,EXP8c_FJ,0,9a301eba8435f46c0fe7f5dd78455f28a29592eb0f7da415c7f69b2d1d68989a,10427.413805007936,False,click,tone_or_word,12173,[],choice-response,Lab or Lap,6386964223574911aecf7675,2022-11-29 18:31:14-05:00,debrief3,12176,435,Tone_word_debrief,Tone,9a301,EXP8c
291,fail,6345b7f49677d36bd07c5a10,EXP8c_FJ,0,9a301eba8435f46c0fe7f5dd78455f28a29592eb0f7da415c7f69b2d1d68989a,10427.413805007936,,keypress,TxRsp,34309,,text-response,I think that i could hear the words but also i was looking for the word so i feel my judement was impared at times too,6386964223574911aecf7675,2022-11-29 18:31:14-05:00,debrief4,34313,436,Tone_word_debrief,Tone,9a301,EXP8c
292,pass,6345b7f49677d36bd07c5a10,EXP8c_FJ,0,d64586a68e2ebcd026cd6bedc180c8d924f8da2bce5593435e35d44f5a81e40f,2025.301005125045,False,click,tone_or_word,8093,[],choice-response,Musical Tones,6386964223574911aecf7675,2022-11-29 18:31:14-05:00,debrief3,8095,423,Tone_word_debrief,Tone,d6458,EXP8c
293,pass,6345b7f49677d36bd07c5a10,EXP8c_FJ,0,d64586a68e2ebcd026cd6bedc180c8d924f8da2bce5593435e35d44f5a81e40f,2025.301005125045,,keypress,TxRsp,14896,,text-response,it didn't sound like words at all.,6386964223574911aecf7675,2022-11-29 18:31:14-05:00,debrief4,14898,424,Tone_word_debrief,Tone,d6458,EXP8c
