branch_failpass,expt_id,group_id,network_error_repeat,participant_id,participation_duration,response_correct,response_mode,response_name,response_rt,response_target,response_type,response_value,session_id,session_start_time,stimuli_presented,trial_duration,trial_num,trial_template
pass,6345b7f49677d36bd07c5a10,EXP8c_JF,0,12e7bbe9edfe05a20e9793e4795387b34d2e08054279563b28ec37e80219e412,7999.583134889603,False,click,survey_noise,2346,[],choice-response,1,6382505f1517c76bb9b79768,2022-11-26 12:43:59-05:00,logistics_noise,3954,1,logisticsQuestionnaire
pass,6345b7f49677d36bd07c5a10,EXP8c_JF,0,12e7bbe9edfe05a20e9793e4795387b34d2e08054279563b28ec37e80219e412,7999.583134889603,False,click,survey_headphone1,3404,[],choice-response,No,6382505f1517c76bb9b79768,2022-11-26 12:43:59-05:00,logistic_headphone1,35416,2,logisticsQuestionnaire
pass,6345b7f49677d36bd07c5a10,EXP8c_JF,0,12e7bbe9edfe05a20e9793e4795387b34d2e08054279563b28ec37e80219e412,7999.583134889603,False,click,survey_headphone2,3351,[],choice-response,Wireless Headphones,6382505f1517c76bb9b79768,2022-11-26 12:43:59-05:00,logistic_headphone2,8375,3,logisticsQuestionnaire
pass,6345b7f49677d36bd07c5a10,EXP8c_JF,0,12e7bbe9edfe05a20e9793e4795387b34d2e08054279563b28ec37e80219e412,7999.583134889603,False,keypress,EXP8c_exampleRsp_s_J,4534,['Lap'],choice-response,Lab,6382505f1517c76bb9b79768,2022-11-26 12:43:59-05:00,short_tone_1,8216,4,EXP8c_Pretestexample_s_rv
pass,6345b7f49677d36bd07c5a10,EXP8c_JF,0,12e7bbe9edfe05a20e9793e4795387b34d2e08054279563b28ec37e80219e412,7999.583134889603,True,keypress,EXP8c_exampleRsp_l_F,1926,['Lab'],choice-response,Lab,6382505f1517c76bb9b79768,2022-11-26 12:43:59-05:00,long_tone_8,5665,5,EXP8c_Pretestexample_l_rv
pass,6345b7f49677d36bd07c5a10,EXP8c_JF,0,12e7bbe9edfe05a20e9793e4795387b34d2e08054279563b28ec37e80219e412,7999.583134889603,True,keypress,EXP8c_exampleRsp_s_J,3066,['Lap'],choice-response,Lap,6382505f1517c76bb9b79768,2022-11-26 12:43:59-05:00,short_tone_1,6628,6,EXP8c_Pretestexample_s_rv
pass,6345b7f49677d36bd07c5a10,EXP8c_JF,0,12e7bbe9edfe05a20e9793e4795387b34d2e08054279563b28ec37e80219e412,7999.583134889603,True,keypress,EXP8c_exampleRsp_l_F,2019,['Lab'],choice-response,Lab,6382505f1517c76bb9b79768,2022-11-26 12:43:59-05:00,long_tone_8,5767,7,EXP8c_Pretestexample_l_rv
pass,6345b7f49677d36bd07c5a10,EXP8c_JF,0,12e7bbe9edfe05a20e9793e4795387b34d2e08054279563b28ec37e80219e412,7999.583134889603,False,keypress,EXP8c_testRsp_rv,1042,[],choice-response,Lab,6382505f1517c76bb9b79768,2022-11-26 12:43:59-05:00,short_tone_1,1954,8,EXP8c_PretestTrials_s_rv
pass,6345b7f49677d36bd07c5a10,EXP8c_JF,0,12e7bbe9edfe05a20e9793e4795387b34d2e08054279563b28ec37e80219e412,7999.583134889603,False,keypress,EXP8c_testRsp_rv,953,[],choice-response,Lab,6382505f1517c76bb9b79768,2022-11-26 12:43:59-05:00,long_tone_8,2040,9,EXP8c_PretestTrials_l_rv
pass,6345b7f49677d36bd07c5a10,EXP8c_JF,0,12e7bbe9edfe05a20e9793e4795387b34d2e08054279563b28ec37e80219e412,7999.583134889603,False,keypress,EXP8c_testRsp_rv,416,[],choice-response,Lap,6382505f1517c76bb9b79768,2022-11-26 12:43:59-05:00,short_tone_1,1336,10,EXP8c_PretestTrials_s_rv
pass,6345b7f49677d36bd07c5a10,EXP8c_JF,0,12e7bbe9edfe05a20e9793e4795387b34d2e08054279563b28ec37e80219e412,7999.583134889603,False,keypress,EXP8c_testRsp_rv,376,[],choice-response,Lab,6382505f1517c76bb9b79768,2022-11-26 12:43:59-05:00,long_tone_8,1448,11,EXP8c_PretestTrials_l_rv
pass,6345b7f49677d36bd07c5a10,EXP8c_JF,0,12e7bbe9edfe05a20e9793e4795387b34d2e08054279563b28ec37e80219e412,7999.583134889603,False,keypress,EXP8c_testRsp_rv,392,[],choice-response,Lap,6382505f1517c76bb9b79768,2022-11-26 12:43:59-05:00,short_tone_1,1314,12,EXP8c_PretestTrials_s_rv
pass,6345b7f49677d36bd07c5a10,EXP8c_JF,0,12e7bbe9edfe05a20e9793e4795387b34d2e08054279563b28ec37e80219e412,7999.583134889603,False,keypress,EXP8c_testRsp_rv,804,[],choice-response,Lab,6382505f1517c76bb9b79768,2022-11-26 12:43:59-05:00,long_tone_8,1880,13,EXP8c_PretestTrials_l_rv
pass,6345b7f49677d36bd07c5a10,EXP8c_JF,0,12e7bbe9edfe05a20e9793e4795387b34d2e08054279563b28ec37e80219e412,7999.583134889603,False,keypress,EXP8c_testRsp_rv,635,[],choice-response,Lap,6382505f1517c76bb9b79768,2022-11-26 12:43:59-05:00,short_tone_1,1554,14,EXP8c_PretestTrials_s_rv
pass,6345b7f49677d36bd07c5a10,EXP8c_JF,0,12e7bbe9edfe05a20e9793e4795387b34d2e08054279563b28ec37e80219e412,7999.583134889603,False,keypress,EXP8c_testRsp_rv,1387,[],choice-response,Lab,6382505f1517c76bb9b79768,2022-11-26 12:43:59-05:00,long_tone_8,2474,15,EXP8c_PretestTrials_l_rv
pass,6345b7f49677d36bd07c5a10,EXP8c_JF,0,12e7bbe9edfe05a20e9793e4795387b34d2e08054279563b28ec37e80219e412,7999.583134889603,False,keypress,EXP8c_testRsp_rv,994,[],choice-response,Lab,6382505f1517c76bb9b79768,2022-11-26 12:43:59-05:00,long_tone_8,2059,16,EXP8c_PretestTrials_l_rv
pass,6345b7f49677d36bd07c5a10,EXP8c_JF,0,12e7bbe9edfe05a20e9793e4795387b34d2e08054279563b28ec37e80219e412,7999.583134889603,False,keypress,EXP8c_testRsp_rv,430,[],choice-response,Lap,6382505f1517c76bb9b79768,2022-11-26 12:43:59-05:00,short_tone_1,1335,17,EXP8c_PretestTrials_s_rv
pass,6345b7f49677d36bd07c5a10,EXP8c_JF,0,12e7bbe9edfe05a20e9793e4795387b34d2e08054279563b28ec37e80219e412,7999.583134889603,False,keypress,EXP8c_testRsp_rv,313,[],choice-response,Lab,6382505f1517c76bb9b79768,2022-11-26 12:43:59-05:00,long_tone_8,1394,18,EXP8c_PretestTrials_l_rv
pass,6345b7f49677d36bd07c5a10,EXP8c_JF,0,12e7bbe9edfe05a20e9793e4795387b34d2e08054279563b28ec37e80219e412,7999.583134889603,False,keypress,EXP8c_testRsp_rv,355,[],choice-response,Lap,6382505f1517c76bb9b79768,2022-11-26 12:43:59-05:00,short_tone_1,1259,19,EXP8c_PretestTrials_s_rv
pass,6345b7f49677d36bd07c5a10,EXP8c_JF,0,12e7bbe9edfe05a20e9793e4795387b34d2e08054279563b28ec37e80219e412,7999.583134889603,False,keypress,EXP8c_testRsp_rv,316,[],choice-response,Lab,6382505f1517c76bb9b79768,2022-11-26 12:43:59-05:00,long_tone_8,1386,20,EXP8c_PretestTrials_l_rv
pass,6345b7f49677d36bd07c5a10,EXP8c_JF,0,12e7bbe9edfe05a20e9793e4795387b34d2e08054279563b28ec37e80219e412,7999.583134889603,False,keypress,EXP8c_testRsp_rv,461,[],choice-response,Lap,6382505f1517c76bb9b79768,2022-11-26 12:43:59-05:00,short_tone_1,1372,21,EXP8c_PretestTrials_s_rv
pass,6345b7f49677d36bd07c5a10,EXP8c_JF,0,12e7bbe9edfe05a20e9793e4795387b34d2e08054279563b28ec37e80219e412,7999.583134889603,False,keypress,EXP8c_testRsp_rv,512,[],choice-response,Lap,6382505f1517c76bb9b79768,2022-11-26 12:43:59-05:00,short_tone_1,1414,22,EXP8c_PretestTrials_s_rv
pass,6345b7f49677d36bd07c5a10,EXP8c_JF,0,12e7bbe9edfe05a20e9793e4795387b34d2e08054279563b28ec37e80219e412,7999.583134889603,False,keypress,EXP8c_testRsp_rv,320,[],choice-response,Lab,6382505f1517c76bb9b79768,2022-11-26 12:43:59-05:00,long_tone_8,1450,23,EXP8c_PretestTrials_l_rv
pass,6345b7f49677d36bd07c5a10,EXP8c_JF,0,12e7bbe9edfe05a20e9793e4795387b34d2e08054279563b28ec37e80219e412,7999.583134889603,False,keypress,EXP8c_testRsp_rv,845,[],choice-response,Lap,6382505f1517c76bb9b79768,2022-11-26 12:43:59-05:00,short_tone_1,1765,24,EXP8c_PretestTrials_s_rv
pass,6345b7f49677d36bd07c5a10,EXP8c_JF,0,12e7bbe9edfe05a20e9793e4795387b34d2e08054279563b28ec37e80219e412,7999.583134889603,False,keypress,EXP8c_testRsp_rv,351,[],choice-response,Lab,6382505f1517c76bb9b79768,2022-11-26 12:43:59-05:00,long_tone_8,1424,25,EXP8c_PretestTrials_l_rv
pass,6345b7f49677d36bd07c5a10,EXP8c_JF,0,12e7bbe9edfe05a20e9793e4795387b34d2e08054279563b28ec37e80219e412,7999.583134889603,False,keypress,EXP8c_testRsp_rv,393,[],choice-response,Lap,6382505f1517c76bb9b79768,2022-11-26 12:43:59-05:00,short_tone_1,1309,26,EXP8c_PretestTrials_s_rv
pass,6345b7f49677d36bd07c5a10,EXP8c_JF,0,12e7bbe9edfe05a20e9793e4795387b34d2e08054279563b28ec37e80219e412,7999.583134889603,False,keypress,EXP8c_testRsp_rv,305,[],choice-response,Lab,6382505f1517c76bb9b79768,2022-11-26 12:43:59-05:00,long_tone_8,1375,27,EXP8c_PretestTrials_l_rv
pass,6345b7f49677d36bd07c5a10,EXP8c_JF,0,12e7bbe9edfe05a20e9793e4795387b34d2e08054279563b28ec37e80219e412,7999.583134889603,False,keypress,EXP8c_testRsp_rv,416,[],choice-response,Lap,6382505f1517c76bb9b79768,2022-11-26 12:43:59-05:00,short_tone_1,1325,28,EXP8c_PretestTrials_s_rv
pass,6345b7f49677d36bd07c5a10,EXP8c_JF,0,12e7bbe9edfe05a20e9793e4795387b34d2e08054279563b28ec37e80219e412,7999.583134889603,False,keypress,EXP8c_testRsp_rv,526,[],choice-response,Lab,6382505f1517c76bb9b79768,2022-11-26 12:43:59-05:00,long_tone_8,1622,29,EXP8c_PretestTrials_l_rv
pass,6345b7f49677d36bd07c5a10,EXP8c_JF,0,12e7bbe9edfe05a20e9793e4795387b34d2e08054279563b28ec37e80219e412,7999.583134889603,False,keypress,EXP8c_testRsp_rv,368,[],choice-response,Lab,6382505f1517c76bb9b79768,2022-11-26 12:43:59-05:00,long_tone_8,1498,30,EXP8c_PretestTrials_l_rv
pass,6345b7f49677d36bd07c5a10,EXP8c_JF,0,12e7bbe9edfe05a20e9793e4795387b34d2e08054279563b28ec37e80219e412,7999.583134889603,False,keypress,EXP8c_testRsp_rv,379,[],choice-response,Lap,6382505f1517c76bb9b79768,2022-11-26 12:43:59-05:00,short_tone_1,1294,31,EXP8c_PretestTrials_s_rv
pass,6345b7f49677d36bd07c5a10,EXP8c_JF,0,12e7bbe9edfe05a20e9793e4795387b34d2e08054279563b28ec37e80219e412,7999.583134889603,False,keypress,EXP8c_testRsp_rv,494,[],choice-response,Lap,6382505f1517c76bb9b79768,2022-11-26 12:43:59-05:00,short_tone_1,1403,32,EXP8c_PretestTrials_s_rv
pass,6345b7f49677d36bd07c5a10,EXP8c_JF,0,12e7bbe9edfe05a20e9793e4795387b34d2e08054279563b28ec37e80219e412,7999.583134889603,False,keypress,EXP8c_testRsp_rv,233,[],choice-response,Lab,6382505f1517c76bb9b79768,2022-11-26 12:43:59-05:00,long_tone_8,1305,33,EXP8c_PretestTrials_l_rv
pass,6345b7f49677d36bd07c5a10,EXP8c_JF,0,12e7bbe9edfe05a20e9793e4795387b34d2e08054279563b28ec37e80219e412,7999.583134889603,False,keypress,EXP8c_testRsp_rv,439,[],choice-response,Lap,6382505f1517c76bb9b79768,2022-11-26 12:43:59-05:00,short_tone_1,1340,34,EXP8c_PretestTrials_s_rv
pass,6345b7f49677d36bd07c5a10,EXP8c_JF,0,12e7bbe9edfe05a20e9793e4795387b34d2e08054279563b28ec37e80219e412,7999.583134889603,False,keypress,EXP8c_testRsp_rv,246,[],choice-response,Lab,6382505f1517c76bb9b79768,2022-11-26 12:43:59-05:00,long_tone_8,1315,35,EXP8c_PretestTrials_l_rv
pass,6345b7f49677d36bd07c5a10,EXP8c_JF,0,12e7bbe9edfe05a20e9793e4795387b34d2e08054279563b28ec37e80219e412,7999.583134889603,False,keypress,EXP8c_testRsp_rv,444,[],choice-response,Lap,6382505f1517c76bb9b79768,2022-11-26 12:43:59-05:00,short_tone_1,1352,36,EXP8c_PretestTrials_s_rv
pass,6345b7f49677d36bd07c5a10,EXP8c_JF,0,12e7bbe9edfe05a20e9793e4795387b34d2e08054279563b28ec37e80219e412,7999.583134889603,False,keypress,EXP8c_testRsp_rv,262,[],choice-response,Lab,6382505f1517c76bb9b79768,2022-11-26 12:43:59-05:00,long_tone_8,1328,37,EXP8c_PretestTrials_l_rv
pass,6345b7f49677d36bd07c5a10,EXP8c_JF,0,12e7bbe9edfe05a20e9793e4795387b34d2e08054279563b28ec37e80219e412,7999.583134889603,False,keypress,EXP8c_testRsp_rv,363,[],choice-response,Lap,6382505f1517c76bb9b79768,2022-11-26 12:43:59-05:00,short_tone_1,1270,38,EXP8c_PretestTrials_s_rv
pass,6345b7f49677d36bd07c5a10,EXP8c_JF,0,12e7bbe9edfe05a20e9793e4795387b34d2e08054279563b28ec37e80219e412,7999.583134889603,False,keypress,EXP8c_testRsp_rv,258,[],choice-response,Lab,6382505f1517c76bb9b79768,2022-11-26 12:43:59-05:00,long_tone_8,1327,39,EXP8c_PretestTrials_l_rv
pass,6345b7f49677d36bd07c5a10,EXP8c_JF,0,12e7bbe9edfe05a20e9793e4795387b34d2e08054279563b28ec37e80219e412,7999.583134889603,False,keypress,EXP8c_testRsp_rv,450,[],choice-response,Lap,6382505f1517c76bb9b79768,2022-11-26 12:43:59-05:00,short_tone_1,1356,40,EXP8c_PretestTrials_s_rv
pass,6345b7f49677d36bd07c5a10,EXP8c_JF,0,12e7bbe9edfe05a20e9793e4795387b34d2e08054279563b28ec37e80219e412,7999.583134889603,False,keypress,EXP8c_testRsp_rv,284,[],choice-response,Lab,6382505f1517c76bb9b79768,2022-11-26 12:43:59-05:00,long_tone_8,1365,41,EXP8c_PretestTrials_l_rv
pass,6345b7f49677d36bd07c5a10,EXP8c_JF,0,12e7bbe9edfe05a20e9793e4795387b34d2e08054279563b28ec37e80219e412,7999.583134889603,False,keypress,EXP8c_testRsp_rv,480,[],choice-response,Lab,6382505f1517c76bb9b79768,2022-11-26 12:43:59-05:00,long_tone_8,1545,42,EXP8c_PretestTrials_l_rv
pass,6345b7f49677d36bd07c5a10,EXP8c_JF,0,12e7bbe9edfe05a20e9793e4795387b34d2e08054279563b28ec37e80219e412,7999.583134889603,False,keypress,EXP8c_testRsp_rv,377,[],choice-response,Lap,6382505f1517c76bb9b79768,2022-11-26 12:43:59-05:00,short_tone_1,1291,43,EXP8c_PretestTrials_s_rv
pass,6345b7f49677d36bd07c5a10,EXP8c_JF,0,12e7bbe9edfe05a20e9793e4795387b34d2e08054279563b28ec37e80219e412,7999.583134889603,False,keypress,EXP8c_testRsp_rv,273,[],choice-response,Lab,6382505f1517c76bb9b79768,2022-11-26 12:43:59-05:00,long_tone_8,1344,44,EXP8c_PretestTrials_l_rv
pass,6345b7f49677d36bd07c5a10,EXP8c_JF,0,12e7bbe9edfe05a20e9793e4795387b34d2e08054279563b28ec37e80219e412,7999.583134889603,False,keypress,EXP8c_testRsp_rv,1345,[],choice-response,Lap,6382505f1517c76bb9b79768,2022-11-26 12:43:59-05:00,short_tone_1,2256,45,EXP8c_PretestTrials_s_rv
pass,6345b7f49677d36bd07c5a10,EXP8c_JF,0,12e7bbe9edfe05a20e9793e4795387b34d2e08054279563b28ec37e80219e412,7999.583134889603,False,keypress,EXP8c_testRsp_rv,1004,[],choice-response,Lap,6382505f1517c76bb9b79768,2022-11-26 12:43:59-05:00,short_tone_1,1909,46,EXP8c_PretestTrials_s_rv
pass,6345b7f49677d36bd07c5a10,EXP8c_JF,0,12e7bbe9edfe05a20e9793e4795387b34d2e08054279563b28ec37e80219e412,7999.583134889603,False,keypress,EXP8c_testRsp_rv,1052,[],choice-response,Lab,6382505f1517c76bb9b79768,2022-11-26 12:43:59-05:00,long_tone_8,2124,47,EXP8c_PretestTrials_l_rv
pass,6345b7f49677d36bd07c5a10,EXP8c_JF,0,12e7bbe9edfe05a20e9793e4795387b34d2e08054279563b28ec37e80219e412,7999.583134889603,False,keypress,EXP8c_testRsp_rv,475,[],choice-response,Lap,6382505f1517c76bb9b79768,2022-11-26 12:43:59-05:00,short_tone_1,1389,48,EXP8c_PretestTrials_s_rv
pass,6345b7f49677d36bd07c5a10,EXP8c_JF,0,12e7bbe9edfe05a20e9793e4795387b34d2e08054279563b28ec37e80219e412,7999.583134889603,False,keypress,EXP8c_testRsp_rv,441,[],choice-response,Lab,6382505f1517c76bb9b79768,2022-11-26 12:43:59-05:00,long_tone_8,1512,49,EXP8c_PretestTrials_l_rv
pass,6345b7f49677d36bd07c5a10,EXP8c_JF,0,12e7bbe9edfe05a20e9793e4795387b34d2e08054279563b28ec37e80219e412,7999.583134889603,False,keypress,EXP8c_testRsp_rv,618,[],choice-response,Lap,6382505f1517c76bb9b79768,2022-11-26 12:43:59-05:00,short_tone_1,1529,50,EXP8c_PretestTrials_s_rv
pass,6345b7f49677d36bd07c5a10,EXP8c_JF,0,12e7bbe9edfe05a20e9793e4795387b34d2e08054279563b28ec37e80219e412,7999.583134889603,False,keypress,EXP8c_testRsp_rv,312,[],choice-response,Lab,6382505f1517c76bb9b79768,2022-11-26 12:43:59-05:00,long_tone_8,1381,51,EXP8c_PretestTrials_l_rv
pass,6345b7f49677d36bd07c5a10,EXP8c_JF,0,12e7bbe9edfe05a20e9793e4795387b34d2e08054279563b28ec37e80219e412,7999.583134889603,False,keypress,EXP8c_testRsp_rv,699,[],choice-response,Lap,6382505f1517c76bb9b79768,2022-11-26 12:43:59-05:00,short_tone_1,1605,52,EXP8c_PretestTrials_s_rv
pass,6345b7f49677d36bd07c5a10,EXP8c_JF,0,12e7bbe9edfe05a20e9793e4795387b34d2e08054279563b28ec37e80219e412,7999.583134889603,False,keypress,EXP8c_testRsp_rv,291,[],choice-response,Lab,6382505f1517c76bb9b79768,2022-11-26 12:43:59-05:00,long_tone_8,1353,53,EXP8c_PretestTrials_l_rv
pass,6345b7f49677d36bd07c5a10,EXP8c_JF,0,12e7bbe9edfe05a20e9793e4795387b34d2e08054279563b28ec37e80219e412,7999.583134889603,False,keypress,EXP8c_testRsp_rv,354,[],choice-response,Lap,6382505f1517c76bb9b79768,2022-11-26 12:43:59-05:00,short_tone_1,1257,54,EXP8c_PretestTrials_s_rv
pass,6345b7f49677d36bd07c5a10,EXP8c_JF,0,12e7bbe9edfe05a20e9793e4795387b34d2e08054279563b28ec37e80219e412,7999.583134889603,False,keypress,EXP8c_testRsp_rv,174,[],choice-response,Lab,6382505f1517c76bb9b79768,2022-11-26 12:43:59-05:00,long_tone_8,1238,55,EXP8c_PretestTrials_l_rv
pass,6345b7f49677d36bd07c5a10,EXP8c_JF,0,12e7bbe9edfe05a20e9793e4795387b34d2e08054279563b28ec37e80219e412,7999.583134889603,False,keypress,EXP8c_testRsp_rv,295,[],choice-response,Lab,6382505f1517c76bb9b79768,2022-11-26 12:43:59-05:00,long_tone_8,1364,56,EXP8c_PretestTrials_l_rv
pass,6345b7f49677d36bd07c5a10,EXP8c_JF,0,12e7bbe9edfe05a20e9793e4795387b34d2e08054279563b28ec37e80219e412,7999.583134889603,False,keypress,EXP8c_testRsp_rv,449,[],choice-response,Lap,6382505f1517c76bb9b79768,2022-11-26 12:43:59-05:00,short_tone_1,1353,57,EXP8c_PretestTrials_s_rv
pass,6345b7f49677d36bd07c5a10,EXP8c_JF,0,12e7bbe9edfe05a20e9793e4795387b34d2e08054279563b28ec37e80219e412,7999.583134889603,False,keypress,EXP8c_testRsp_rv,152,[],choice-response,Lab,6382505f1517c76bb9b79768,2022-11-26 12:43:59-05:00,long_tone_8,1221,58,EXP8c_PretestTrials_l_rv
pass,6345b7f49677d36bd07c5a10,EXP8c_JF,0,12e7bbe9edfe05a20e9793e4795387b34d2e08054279563b28ec37e80219e412,7999.583134889603,False,keypress,EXP8c_testRsp_rv,329,[],choice-response,Lap,6382505f1517c76bb9b79768,2022-11-26 12:43:59-05:00,short_tone_1,1224,59,EXP8c_PretestTrials_s_rv
pass,6345b7f49677d36bd07c5a10,EXP8c_JF,0,12e7bbe9edfe05a20e9793e4795387b34d2e08054279563b28ec37e80219e412,7999.583134889603,False,keypress,EXP8c_testRsp_rv,445,[],choice-response,Lap,6382505f1517c76bb9b79768,2022-11-26 12:43:59-05:00,short_tone_1,1355,60,EXP8c_PretestTrials_s_rv
pass,6345b7f49677d36bd07c5a10,EXP8c_JF,0,12e7bbe9edfe05a20e9793e4795387b34d2e08054279563b28ec37e80219e412,7999.583134889603,False,keypress,EXP8c_testRsp_rv,245,[],choice-response,Lab,6382505f1517c76bb9b79768,2022-11-26 12:43:59-05:00,long_tone_8,1322,61,EXP8c_PretestTrials_l_rv
pass,6345b7f49677d36bd07c5a10,EXP8c_JF,0,12e7bbe9edfe05a20e9793e4795387b34d2e08054279563b28ec37e80219e412,7999.583134889603,False,keypress,EXP8c_testRsp_rv,279,[],choice-response,Lab,6382505f1517c76bb9b79768,2022-11-26 12:43:59-05:00,long_tone_8,1353,62,EXP8c_PretestTrials_l_rv
pass,6345b7f49677d36bd07c5a10,EXP8c_JF,0,12e7bbe9edfe05a20e9793e4795387b34d2e08054279563b28ec37e80219e412,7999.583134889603,False,keypress,EXP8c_testRsp_rv,258,[],choice-response,Lap,6382505f1517c76bb9b79768,2022-11-26 12:43:59-05:00,short_tone_1,1155,63,EXP8c_PretestTrials_s_rv
pass,6345b7f49677d36bd07c5a10,EXP8c_JF,0,12e7bbe9edfe05a20e9793e4795387b34d2e08054279563b28ec37e80219e412,7999.583134889603,False,keypress,EXP8c_testRsp_rv,221,[],choice-response,Lab,6382505f1517c76bb9b79768,2022-11-26 12:43:59-05:00,long_tone_8,1291,64,EXP8c_PretestTrials_l_rv
pass,6345b7f49677d36bd07c5a10,EXP8c_JF,0,12e7bbe9edfe05a20e9793e4795387b34d2e08054279563b28ec37e80219e412,7999.583134889603,False,keypress,EXP8c_testRsp_rv,797,[],choice-response,Lap,6382505f1517c76bb9b79768,2022-11-26 12:43:59-05:00,short_tone_1,1696,65,EXP8c_PretestTrials_s_rv
pass,6345b7f49677d36bd07c5a10,EXP8c_JF,0,12e7bbe9edfe05a20e9793e4795387b34d2e08054279563b28ec37e80219e412,7999.583134889603,False,keypress,EXP8c_testRsp_rv,250,[],choice-response,Lab,6382505f1517c76bb9b79768,2022-11-26 12:43:59-05:00,long_tone_8,1323,66,EXP8c_PretestTrials_l_rv
pass,6345b7f49677d36bd07c5a10,EXP8c_JF,0,12e7bbe9edfe05a20e9793e4795387b34d2e08054279563b28ec37e80219e412,7999.583134889603,False,keypress,EXP8c_testRsp_rv,452,[],choice-response,Lap,6382505f1517c76bb9b79768,2022-11-26 12:43:59-05:00,short_tone_1,1354,67,EXP8c_PretestTrials_s_rv
pass,6345b7f49677d36bd07c5a10,EXP8c_JF,0,12e7bbe9edfe05a20e9793e4795387b34d2e08054279563b28ec37e80219e412,7999.583134889603,True,keypress,EXP8c_exampleRsp_l_F,4415,['Lab'],choice-response,Lab,6382505f1517c76bb9b79768,2022-11-26 12:43:59-05:00,single_300ms_ontime_delay_2_tone_Lab_8,10449,68,EXP8c_example_l_rv
pass,6345b7f49677d36bd07c5a10,EXP8c_JF,0,12e7bbe9edfe05a20e9793e4795387b34d2e08054279563b28ec37e80219e412,7999.583134889603,True,keypress,EXP8c_exampleRsp_s_J,759,['Lap'],choice-response,Lap,6382505f1517c76bb9b79768,2022-11-26 12:43:59-05:00,single_300ms_ontime_delay_2_tone_Lab_1,6593,69,EXP8c_example_s_rv
pass,6345b7f49677d36bd07c5a10,EXP8c_JF,0,12e7bbe9edfe05a20e9793e4795387b34d2e08054279563b28ec37e80219e412,7999.583134889603,False,keypress,EXP8c_exampleRsp_s_J,738,['Lap'],choice-response,Lab,6382505f1517c76bb9b79768,2022-11-26 12:43:59-05:00,single_300ms_ontime_delay_2_tone_Lab_1,6452,70,EXP8c_example_s_rv
pass,6345b7f49677d36bd07c5a10,EXP8c_JF,0,12e7bbe9edfe05a20e9793e4795387b34d2e08054279563b28ec37e80219e412,7999.583134889603,True,keypress,EXP8c_exampleRsp_l_F,345,['Lab'],choice-response,Lab,6382505f1517c76bb9b79768,2022-11-26 12:43:59-05:00,single_300ms_ontime_delay_2_tone_Lab_8,6161,71,EXP8c_example_l_rv
pass,6345b7f49677d36bd07c5a10,EXP8c_JF,0,12e7bbe9edfe05a20e9793e4795387b34d2e08054279563b28ec37e80219e412,7999.583134889603,True,keypress,EXP8c_practiceRsp_s_J,649,['Lap'],choice-response,Lap,6382505f1517c76bb9b79768,2022-11-26 12:43:59-05:00,single_300ms_ontime_delay_2_tone_Lab_1,6328,72,EXP8c_practiceTrials_s_rv
pass,6345b7f49677d36bd07c5a10,EXP8c_JF,0,12e7bbe9edfe05a20e9793e4795387b34d2e08054279563b28ec37e80219e412,7999.583134889603,True,keypress,EXP8c_practiceRsp_l_F,131,['Lab'],choice-response,Lab,6382505f1517c76bb9b79768,2022-11-26 12:43:59-05:00,single_300ms_ontime_delay_2_tone_Lab_8,5979,73,EXP8c_practiceTrials_l_rv
pass,6345b7f49677d36bd07c5a10,EXP8c_JF,0,12e7bbe9edfe05a20e9793e4795387b34d2e08054279563b28ec37e80219e412,7999.583134889603,True,keypress,EXP8c_practiceRsp_s_J,612,['Lap'],choice-response,Lap,6382505f1517c76bb9b79768,2022-11-26 12:43:59-05:00,single_300ms_ontime_delay_2_tone_Lab_1,6411,74,EXP8c_practiceTrials_s_rv
pass,6345b7f49677d36bd07c5a10,EXP8c_JF,0,12e7bbe9edfe05a20e9793e4795387b34d2e08054279563b28ec37e80219e412,7999.583134889603,True,keypress,EXP8c_practiceRsp_l_F,129,['Lab'],choice-response,Lab,6382505f1517c76bb9b79768,2022-11-26 12:43:59-05:00,single_300ms_ontime_delay_2_tone_Lab_8,5966,75,EXP8c_practiceTrials_l_rv
pass,6345b7f49677d36bd07c5a10,EXP8c_JF,0,12e7bbe9edfe05a20e9793e4795387b34d2e08054279563b28ec37e80219e412,7999.583134889603,True,keypress,EXP8c_practiceRsp_l_F,108,['Lab'],choice-response,Lab,6382505f1517c76bb9b79768,2022-11-26 12:43:59-05:00,single_300ms_ontime_delay_2_tone_Lab_8,5930,76,EXP8c_practiceTrials_l_rv
pass,6345b7f49677d36bd07c5a10,EXP8c_JF,0,12e7bbe9edfe05a20e9793e4795387b34d2e08054279563b28ec37e80219e412,7999.583134889603,True,keypress,EXP8c_practiceRsp_s_J,288,['Lap'],choice-response,Lap,6382505f1517c76bb9b79768,2022-11-26 12:43:59-05:00,single_300ms_ontime_delay_2_tone_Lab_1,5999,77,EXP8c_practiceTrials_s_rv
pass,6345b7f49677d36bd07c5a10,EXP8c_JF,0,12e7bbe9edfe05a20e9793e4795387b34d2e08054279563b28ec37e80219e412,7999.583134889603,True,keypress,EXP8c_practiceRsp_l_F,27,['Lab'],choice-response,Lab,6382505f1517c76bb9b79768,2022-11-26 12:43:59-05:00,single_300ms_ontime_delay_2_tone_Lab_8,5846,78,EXP8c_practiceTrials_l_rv
pass,6345b7f49677d36bd07c5a10,EXP8c_JF,0,12e7bbe9edfe05a20e9793e4795387b34d2e08054279563b28ec37e80219e412,7999.583134889603,True,keypress,EXP8c_practiceRsp_s_J,309,['Lap'],choice-response,Lap,6382505f1517c76bb9b79768,2022-11-26 12:43:59-05:00,single_300ms_ontime_delay_2_tone_Lab_1,6003,79,EXP8c_practiceTrials_s_rv
pass,6345b7f49677d36bd07c5a10,EXP8c_JF,0,12e7bbe9edfe05a20e9793e4795387b34d2e08054279563b28ec37e80219e412,7999.583134889603,False,keypress,EXP8c_practiceRsp_s_J,230,['Lap'],choice-response,Lab,6382505f1517c76bb9b79768,2022-11-26 12:43:59-05:00,single_300ms_ontime_delay_2_tone_Lab_1,5930,80,EXP8c_practiceTrials_s_rv
pass,6345b7f49677d36bd07c5a10,EXP8c_JF,0,12e7bbe9edfe05a20e9793e4795387b34d2e08054279563b28ec37e80219e412,7999.583134889603,True,keypress,EXP8c_practiceRsp_l_F,110,['Lab'],choice-response,Lab,6382505f1517c76bb9b79768,2022-11-26 12:43:59-05:00,single_300ms_ontime_delay_2_tone_Lab_8,5935,81,EXP8c_practiceTrials_l_rv
pass,6345b7f49677d36bd07c5a10,EXP8c_JF,0,12e7bbe9edfe05a20e9793e4795387b34d2e08054279563b28ec37e80219e412,7999.583134889603,False,keypress,EXP8c_practiceRsp_l_F,205,['Lab'],choice-response,Lap,6382505f1517c76bb9b79768,2022-11-26 12:43:59-05:00,single_300ms_ontime_delay_2_tone_Lab_8,6012,82,EXP8c_practiceTrials_l_rv
pass,6345b7f49677d36bd07c5a10,EXP8c_JF,0,12e7bbe9edfe05a20e9793e4795387b34d2e08054279563b28ec37e80219e412,7999.583134889603,True,keypress,EXP8c_practiceRsp_s_J,715,['Lap'],choice-response,Lap,6382505f1517c76bb9b79768,2022-11-26 12:43:59-05:00,single_300ms_ontime_delay_2_tone_Lab_1,6400,83,EXP8c_practiceTrials_s_rv
pass,6345b7f49677d36bd07c5a10,EXP8c_JF,0,12e7bbe9edfe05a20e9793e4795387b34d2e08054279563b28ec37e80219e412,7999.583134889603,False,keypress,EXP8c_practiceRsp_l_F,847,['Lab'],choice-response,Lap,6382505f1517c76bb9b79768,2022-11-26 12:43:59-05:00,single_300ms_ontime_delay_2_tone_Lab_8,6651,84,EXP8c_practiceTrials_l_rv
pass,6345b7f49677d36bd07c5a10,EXP8c_JF,0,12e7bbe9edfe05a20e9793e4795387b34d2e08054279563b28ec37e80219e412,7999.583134889603,True,keypress,EXP8c_practiceRsp_s_J,487,['Lap'],choice-response,Lap,6382505f1517c76bb9b79768,2022-11-26 12:43:59-05:00,single_300ms_ontime_delay_2_tone_Lab_1,6162,85,EXP8c_practiceTrials_s_rv
pass,6345b7f49677d36bd07c5a10,EXP8c_JF,0,12e7bbe9edfe05a20e9793e4795387b34d2e08054279563b28ec37e80219e412,7999.583134889603,True,keypress,EXP8c_practiceRsp_l_F,201,['Lab'],choice-response,Lab,6382505f1517c76bb9b79768,2022-11-26 12:43:59-05:00,single_300ms_ontime_delay_2_tone_Lab_8,6029,86,EXP8c_practiceTrials_l_rv
pass,6345b7f49677d36bd07c5a10,EXP8c_JF,0,12e7bbe9edfe05a20e9793e4795387b34d2e08054279563b28ec37e80219e412,7999.583134889603,True,keypress,EXP8c_practiceRsp_s_J,697,['Lap'],choice-response,Lap,6382505f1517c76bb9b79768,2022-11-26 12:43:59-05:00,single_300ms_ontime_delay_2_tone_Lab_1,6379,87,EXP8c_practiceTrials_s_rv
pass,6345b7f49677d36bd07c5a10,EXP8c_JF,0,12e7bbe9edfe05a20e9793e4795387b34d2e08054279563b28ec37e80219e412,7999.583134889603,True,keypress,EXP8c_practiceRsp_l_F,507,['Lab'],choice-response,Lab,6382505f1517c76bb9b79768,2022-11-26 12:43:59-05:00,single_300ms_ontime_delay_2_tone_Lab_8,6308,88,EXP8c_practiceTrials_l_rv
pass,6345b7f49677d36bd07c5a10,EXP8c_JF,0,12e7bbe9edfe05a20e9793e4795387b34d2e08054279563b28ec37e80219e412,7999.583134889603,True,keypress,EXP8c_practiceRsp_s_J,535,['Lap'],choice-response,Lap,6382505f1517c76bb9b79768,2022-11-26 12:43:59-05:00,single_300ms_ontime_delay_2_tone_Lab_1,6245,89,EXP8c_practiceTrials_s_rv
pass,6345b7f49677d36bd07c5a10,EXP8c_JF,0,12e7bbe9edfe05a20e9793e4795387b34d2e08054279563b28ec37e80219e412,7999.583134889603,True,keypress,EXP8c_practiceRsp_s_J,612,['Lap'],choice-response,Lap,6382505f1517c76bb9b79768,2022-11-26 12:43:59-05:00,single_300ms_ontime_delay_2_tone_Lab_1,6288,90,EXP8c_practiceTrials_s_rv
pass,6345b7f49677d36bd07c5a10,EXP8c_JF,0,12e7bbe9edfe05a20e9793e4795387b34d2e08054279563b28ec37e80219e412,7999.583134889603,True,keypress,EXP8c_practiceRsp_l_F,184,['Lab'],choice-response,Lab,6382505f1517c76bb9b79768,2022-11-26 12:43:59-05:00,single_300ms_ontime_delay_2_tone_Lab_8,6008,91,EXP8c_practiceTrials_l_rv
pass,6345b7f49677d36bd07c5a10,EXP8c_JF,0,12e7bbe9edfe05a20e9793e4795387b34d2e08054279563b28ec37e80219e412,7999.583134889603,True,keypress,EXP8c_practiceRsp_s_J,370,['Lap'],choice-response,Lap,6382505f1517c76bb9b79768,2022-11-26 12:43:59-05:00,single_300ms_ontime_delay_2_tone_Lab_1,6056,92,EXP8c_practiceTrials_s_rv
pass,6345b7f49677d36bd07c5a10,EXP8c_JF,0,12e7bbe9edfe05a20e9793e4795387b34d2e08054279563b28ec37e80219e412,7999.583134889603,True,keypress,EXP8c_practiceRsp_l_F,187,['Lab'],choice-response,Lab,6382505f1517c76bb9b79768,2022-11-26 12:43:59-05:00,single_300ms_ontime_delay_2_tone_Lab_8,6001,93,EXP8c_practiceTrials_l_rv
pass,6345b7f49677d36bd07c5a10,EXP8c_JF,0,12e7bbe9edfe05a20e9793e4795387b34d2e08054279563b28ec37e80219e412,7999.583134889603,True,keypress,EXP8c_practiceRsp_s_J,551,['Lap'],choice-response,Lap,6382505f1517c76bb9b79768,2022-11-26 12:43:59-05:00,single_300ms_ontime_delay_2_tone_Lab_1,6254,94,EXP8c_practiceTrials_s_rv
pass,6345b7f49677d36bd07c5a10,EXP8c_JF,0,12e7bbe9edfe05a20e9793e4795387b34d2e08054279563b28ec37e80219e412,7999.583134889603,True,keypress,EXP8c_practiceRsp_l_F,77,['Lab'],choice-response,Lab,6382505f1517c76bb9b79768,2022-11-26 12:43:59-05:00,single_300ms_ontime_delay_2_tone_Lab_8,5949,95,EXP8c_practiceTrials_l_rv
pass,6345b7f49677d36bd07c5a10,EXP8c_JF,0,12e7bbe9edfe05a20e9793e4795387b34d2e08054279563b28ec37e80219e412,7999.583134889603,False,keypress,EXP8c_testRsp_rv,216,[],choice-response,Lab,6382505f1517c76bb9b79768,2022-11-26 12:43:59-05:00,single_300ms_late_delay_2_tone_Lab_7,3490,96,EXP8c_maintaskTrials_2_l_rv
pass,6345b7f49677d36bd07c5a10,EXP8c_JF,0,12e7bbe9edfe05a20e9793e4795387b34d2e08054279563b28ec37e80219e412,7999.583134889603,False,keypress,EXP8c_testRsp_rv,515,[],choice-response,Lap,6382505f1517c76bb9b79768,2022-11-26 12:43:59-05:00,single_300ms_early_delay_2_tone_Lab_6,3574,97,EXP8c_maintaskTrials_2_l_rv
pass,6345b7f49677d36bd07c5a10,EXP8c_JF,0,12e7bbe9edfe05a20e9793e4795387b34d2e08054279563b28ec37e80219e412,7999.583134889603,False,keypress,EXP8c_testRsp_rv,230,[],choice-response,Lab,6382505f1517c76bb9b79768,2022-11-26 12:43:59-05:00,single_300ms_late_delay_2_tone_Lab_6,3478,98,EXP8c_maintaskTrials_2_l_rv
pass,6345b7f49677d36bd07c5a10,EXP8c_JF,0,12e7bbe9edfe05a20e9793e4795387b34d2e08054279563b28ec37e80219e412,7999.583134889603,False,keypress,EXP8c_testRsp_rv,602,[],choice-response,Lab,6382505f1517c76bb9b79768,2022-11-26 12:43:59-05:00,single_300ms_ontime_delay_2_tone_Lab_8,3786,99,EXP8c_maintaskTrials_2_l_rv
pass,6345b7f49677d36bd07c5a10,EXP8c_JF,0,12e7bbe9edfe05a20e9793e4795387b34d2e08054279563b28ec37e80219e412,7999.583134889603,False,keypress,EXP8c_testRsp_rv,441,[],choice-response,Lap,6382505f1517c76bb9b79768,2022-11-26 12:43:59-05:00,single_300ms_ontime_delay_2_tone_Lab_1,3500,100,EXP8c_maintaskTrials_2_s_rv
pass,6345b7f49677d36bd07c5a10,EXP8c_JF,0,12e7bbe9edfe05a20e9793e4795387b34d2e08054279563b28ec37e80219e412,7999.583134889603,False,keypress,EXP8c_testRsp_rv,203,[],choice-response,Lab,6382505f1517c76bb9b79768,2022-11-26 12:43:59-05:00,single_300ms_late_delay_2_tone_Lab_8,3480,101,EXP8c_maintaskTrials_2_l_rv
pass,6345b7f49677d36bd07c5a10,EXP8c_JF,0,12e7bbe9edfe05a20e9793e4795387b34d2e08054279563b28ec37e80219e412,7999.583134889603,False,keypress,EXP8c_testRsp_rv,470,[],choice-response,Lap,6382505f1517c76bb9b79768,2022-11-26 12:43:59-05:00,single_300ms_ontime_delay_2_tone_Lab_2,3527,102,EXP8c_maintaskTrials_2_s_rv
pass,6345b7f49677d36bd07c5a10,EXP8c_JF,0,12e7bbe9edfe05a20e9793e4795387b34d2e08054279563b28ec37e80219e412,7999.583134889603,False,keypress,EXP8c_testRsp_rv,563,[],choice-response,Lap,6382505f1517c76bb9b79768,2022-11-26 12:43:59-05:00,single_300ms_early_delay_2_tone_Lab_3,3557,103,EXP8c_maintaskTrials_2_s_rv
pass,6345b7f49677d36bd07c5a10,EXP8c_JF,0,12e7bbe9edfe05a20e9793e4795387b34d2e08054279563b28ec37e80219e412,7999.583134889603,False,keypress,EXP8c_testRsp_rv,237,[],choice-response,Lab,6382505f1517c76bb9b79768,2022-11-26 12:43:59-05:00,single_300ms_early_delay_2_tone_Lab_4,3247,104,EXP8c_maintaskTrials_2_s_rv
pass,6345b7f49677d36bd07c5a10,EXP8c_JF,0,12e7bbe9edfe05a20e9793e4795387b34d2e08054279563b28ec37e80219e412,7999.583134889603,False,keypress,EXP8c_testRsp_rv,327,[],choice-response,Lab,6382505f1517c76bb9b79768,2022-11-26 12:43:59-05:00,single_300ms_early_delay_2_tone_Lab_7,3406,105,EXP8c_maintaskTrials_2_l_rv
pass,6345b7f49677d36bd07c5a10,EXP8c_JF,0,12e7bbe9edfe05a20e9793e4795387b34d2e08054279563b28ec37e80219e412,7999.583134889603,False,keypress,EXP8c_testRsp_rv,619,[],choice-response,Lap,6382505f1517c76bb9b79768,2022-11-26 12:43:59-05:00,single_300ms_early_delay_2_tone_Lab_5,3658,106,EXP8c_maintaskTrials_2_l_rv
pass,6345b7f49677d36bd07c5a10,EXP8c_JF,0,12e7bbe9edfe05a20e9793e4795387b34d2e08054279563b28ec37e80219e412,7999.583134889603,True,keypress,cat_catchRsp,1243,['Cat meowing'],choice-response,Cat meowing,6382505f1517c76bb9b79768,2022-11-26 12:43:59-05:00,cat_meowing,3951,107,Catch_trials
pass,6345b7f49677d36bd07c5a10,EXP8c_JF,0,12e7bbe9edfe05a20e9793e4795387b34d2e08054279563b28ec37e80219e412,7999.583134889603,False,keypress,EXP8c_testRsp_rv,665,[],choice-response,Lap,6382505f1517c76bb9b79768,2022-11-26 12:43:59-05:00,single_300ms_ontime_delay_2_tone_Lab_6,3789,108,EXP8c_maintaskTrials_2_l_rv
pass,6345b7f49677d36bd07c5a10,EXP8c_JF,0,12e7bbe9edfe05a20e9793e4795387b34d2e08054279563b28ec37e80219e412,7999.583134889603,False,keypress,EXP8c_testRsp_rv,528,[],choice-response,Lap,6382505f1517c76bb9b79768,2022-11-26 12:43:59-05:00,single_300ms_ontime_delay_2_tone_Lab_4,3658,109,EXP8c_maintaskTrials_2_s_rv
pass,6345b7f49677d36bd07c5a10,EXP8c_JF,0,12e7bbe9edfe05a20e9793e4795387b34d2e08054279563b28ec37e80219e412,7999.583134889603,False,keypress,EXP8c_testRsp_rv,588,[],choice-response,Lap,6382505f1517c76bb9b79768,2022-11-26 12:43:59-05:00,single_300ms_late_delay_2_tone_Lab_4,3771,110,EXP8c_maintaskTrials_2_s_rv
pass,6345b7f49677d36bd07c5a10,EXP8c_JF,0,12e7bbe9edfe05a20e9793e4795387b34d2e08054279563b28ec37e80219e412,7999.583134889603,False,keypress,EXP8c_testRsp_rv,299,[],choice-response,Lab,6382505f1517c76bb9b79768,2022-11-26 12:43:59-05:00,single_300ms_early_delay_2_tone_Lab_8,3375,111,EXP8c_maintaskTrials_2_l_rv
pass,6345b7f49677d36bd07c5a10,EXP8c_JF,0,12e7bbe9edfe05a20e9793e4795387b34d2e08054279563b28ec37e80219e412,7999.583134889603,False,keypress,EXP8c_testRsp_rv,396,[],choice-response,Lap,6382505f1517c76bb9b79768,2022-11-26 12:43:59-05:00,single_300ms_ontime_delay_2_tone_Lab_5,3540,112,EXP8c_maintaskTrials_2_l_rv
pass,6345b7f49677d36bd07c5a10,EXP8c_JF,0,12e7bbe9edfe05a20e9793e4795387b34d2e08054279563b28ec37e80219e412,7999.583134889603,False,keypress,EXP8c_testRsp_rv,373,[],choice-response,Lap,6382505f1517c76bb9b79768,2022-11-26 12:43:59-05:00,single_300ms_late_delay_2_tone_Lab_1,3521,113,EXP8c_maintaskTrials_2_s_rv
pass,6345b7f49677d36bd07c5a10,EXP8c_JF,0,12e7bbe9edfe05a20e9793e4795387b34d2e08054279563b28ec37e80219e412,7999.583134889603,False,keypress,EXP8c_testRsp_rv,391,[],choice-response,Lab,6382505f1517c76bb9b79768,2022-11-26 12:43:59-05:00,single_300ms_late_delay_2_tone_Lab_5,3603,114,EXP8c_maintaskTrials_2_l_rv
pass,6345b7f49677d36bd07c5a10,EXP8c_JF,0,12e7bbe9edfe05a20e9793e4795387b34d2e08054279563b28ec37e80219e412,7999.583134889603,False,keypress,EXP8c_testRsp_rv,571,[],choice-response,Lap,6382505f1517c76bb9b79768,2022-11-26 12:43:59-05:00,single_300ms_ontime_delay_2_tone_Lab_3,3650,115,EXP8c_maintaskTrials_2_s_rv
pass,6345b7f49677d36bd07c5a10,EXP8c_JF,0,12e7bbe9edfe05a20e9793e4795387b34d2e08054279563b28ec37e80219e412,7999.583134889603,False,keypress,EXP8c_testRsp_rv,451,[],choice-response,Lap,6382505f1517c76bb9b79768,2022-11-26 12:43:59-05:00,single_300ms_early_delay_2_tone_Lab_1,3397,116,EXP8c_maintaskTrials_2_s_rv
pass,6345b7f49677d36bd07c5a10,EXP8c_JF,0,12e7bbe9edfe05a20e9793e4795387b34d2e08054279563b28ec37e80219e412,7999.583134889603,False,keypress,EXP8c_testRsp_rv,236,[],choice-response,Lab,6382505f1517c76bb9b79768,2022-11-26 12:43:59-05:00,single_300ms_ontime_delay_2_tone_Lab_7,3394,117,EXP8c_maintaskTrials_2_l_rv
pass,6345b7f49677d36bd07c5a10,EXP8c_JF,0,12e7bbe9edfe05a20e9793e4795387b34d2e08054279563b28ec37e80219e412,7999.583134889603,False,keypress,EXP8c_testRsp_rv,1227,[],choice-response,Lab,6382505f1517c76bb9b79768,2022-11-26 12:43:59-05:00,single_300ms_late_delay_2_tone_Lab_3,4404,118,EXP8c_maintaskTrials_2_s_rv
pass,6345b7f49677d36bd07c5a10,EXP8c_JF,0,12e7bbe9edfe05a20e9793e4795387b34d2e08054279563b28ec37e80219e412,7999.583134889603,True,keypress,bird_catchRsp,1151,['Bird singing'],choice-response,Bird singing,6382505f1517c76bb9b79768,2022-11-26 12:43:59-05:00,songbird,3860,119,Catch_trials
pass,6345b7f49677d36bd07c5a10,EXP8c_JF,0,12e7bbe9edfe05a20e9793e4795387b34d2e08054279563b28ec37e80219e412,7999.583134889603,False,keypress,EXP8c_testRsp_rv,540,[],choice-response,Lap,6382505f1517c76bb9b79768,2022-11-26 12:43:59-05:00,single_300ms_late_delay_2_tone_Lab_2,3708,120,EXP8c_maintaskTrials_2_s_rv
pass,6345b7f49677d36bd07c5a10,EXP8c_JF,0,12e7bbe9edfe05a20e9793e4795387b34d2e08054279563b28ec37e80219e412,7999.583134889603,False,keypress,EXP8c_testRsp_rv,601,[],choice-response,Lap,6382505f1517c76bb9b79768,2022-11-26 12:43:59-05:00,single_300ms_early_delay_2_tone_Lab_2,3625,121,EXP8c_maintaskTrials_2_s_rv
pass,6345b7f49677d36bd07c5a10,EXP8c_JF,0,12e7bbe9edfe05a20e9793e4795387b34d2e08054279563b28ec37e80219e412,7999.583134889603,False,keypress,EXP8c_testRsp_rv,258,[],choice-response,Lab,6382505f1517c76bb9b79768,2022-11-26 12:43:59-05:00,single_300ms_late_delay_2_tone_Lab_7,3522,122,EXP8c_maintaskTrials_2_l_rv
pass,6345b7f49677d36bd07c5a10,EXP8c_JF,0,12e7bbe9edfe05a20e9793e4795387b34d2e08054279563b28ec37e80219e412,7999.583134889603,False,keypress,EXP8c_testRsp_rv,203,[],choice-response,Lab,6382505f1517c76bb9b79768,2022-11-26 12:43:59-05:00,single_300ms_ontime_delay_2_tone_Lab_6,3321,123,EXP8c_maintaskTrials_2_l_rv
pass,6345b7f49677d36bd07c5a10,EXP8c_JF,0,12e7bbe9edfe05a20e9793e4795387b34d2e08054279563b28ec37e80219e412,7999.583134889603,False,keypress,EXP8c_testRsp_rv,326,[],choice-response,Lap,6382505f1517c76bb9b79768,2022-11-26 12:43:59-05:00,single_300ms_early_delay_2_tone_Lab_1,3267,124,EXP8c_maintaskTrials_2_s_rv
pass,6345b7f49677d36bd07c5a10,EXP8c_JF,0,12e7bbe9edfe05a20e9793e4795387b34d2e08054279563b28ec37e80219e412,7999.583134889603,False,keypress,EXP8c_testRsp_rv,189,[],choice-response,Lab,6382505f1517c76bb9b79768,2022-11-26 12:43:59-05:00,single_300ms_early_delay_2_tone_Lab_7,3235,125,EXP8c_maintaskTrials_2_l_rv
pass,6345b7f49677d36bd07c5a10,EXP8c_JF,0,12e7bbe9edfe05a20e9793e4795387b34d2e08054279563b28ec37e80219e412,7999.583134889603,False,keypress,EXP8c_testRsp_rv,199,[],choice-response,Lab,6382505f1517c76bb9b79768,2022-11-26 12:43:59-05:00,single_300ms_early_delay_2_tone_Lab_6,3252,126,EXP8c_maintaskTrials_2_l_rv
pass,6345b7f49677d36bd07c5a10,EXP8c_JF,0,12e7bbe9edfe05a20e9793e4795387b34d2e08054279563b28ec37e80219e412,7999.583134889603,False,keypress,EXP8c_testRsp_rv,218,[],choice-response,Lab,6382505f1517c76bb9b79768,2022-11-26 12:43:59-05:00,single_300ms_ontime_delay_2_tone_Lab_5,3350,127,EXP8c_maintaskTrials_2_l_rv
pass,6345b7f49677d36bd07c5a10,EXP8c_JF,0,12e7bbe9edfe05a20e9793e4795387b34d2e08054279563b28ec37e80219e412,7999.583134889603,False,keypress,EXP8c_testRsp_rv,344,[],choice-response,Lap,6382505f1517c76bb9b79768,2022-11-26 12:43:59-05:00,single_300ms_late_delay_2_tone_Lab_3,3532,128,EXP8c_maintaskTrials_2_s_rv
pass,6345b7f49677d36bd07c5a10,EXP8c_JF,0,12e7bbe9edfe05a20e9793e4795387b34d2e08054279563b28ec37e80219e412,7999.583134889603,False,keypress,EXP8c_testRsp_rv,119,[],choice-response,Lab,6382505f1517c76bb9b79768,2022-11-26 12:43:59-05:00,single_300ms_late_delay_2_tone_Lab_5,3318,129,EXP8c_maintaskTrials_2_l_rv
pass,6345b7f49677d36bd07c5a10,EXP8c_JF,0,12e7bbe9edfe05a20e9793e4795387b34d2e08054279563b28ec37e80219e412,7999.583134889603,False,keypress,EXP8c_testRsp_rv,138,[],choice-response,Lab,6382505f1517c76bb9b79768,2022-11-26 12:43:59-05:00,single_300ms_late_delay_2_tone_Lab_1,3287,130,EXP8c_maintaskTrials_2_s_rv
pass,6345b7f49677d36bd07c5a10,EXP8c_JF,0,12e7bbe9edfe05a20e9793e4795387b34d2e08054279563b28ec37e80219e412,7999.583134889603,True,keypress,cat_catchRsp,951,['Cat meowing'],choice-response,Cat meowing,6382505f1517c76bb9b79768,2022-11-26 12:43:59-05:00,cat_meowing,3666,131,Catch_trials
pass,6345b7f49677d36bd07c5a10,EXP8c_JF,0,12e7bbe9edfe05a20e9793e4795387b34d2e08054279563b28ec37e80219e412,7999.583134889603,False,keypress,EXP8c_testRsp_rv,388,[],choice-response,Lap,6382505f1517c76bb9b79768,2022-11-26 12:43:59-05:00,single_300ms_ontime_delay_2_tone_Lab_3,3447,132,EXP8c_maintaskTrials_2_s_rv
pass,6345b7f49677d36bd07c5a10,EXP8c_JF,0,12e7bbe9edfe05a20e9793e4795387b34d2e08054279563b28ec37e80219e412,7999.583134889603,False,keypress,EXP8c_testRsp_rv,229,[],choice-response,Lab,6382505f1517c76bb9b79768,2022-11-26 12:43:59-05:00,single_300ms_late_delay_2_tone_Lab_4,3461,133,EXP8c_maintaskTrials_2_s_rv
pass,6345b7f49677d36bd07c5a10,EXP8c_JF,0,12e7bbe9edfe05a20e9793e4795387b34d2e08054279563b28ec37e80219e412,7999.583134889603,False,keypress,EXP8c_testRsp_rv,384,[],choice-response,Lap,6382505f1517c76bb9b79768,2022-11-26 12:43:59-05:00,single_300ms_early_delay_2_tone_Lab_2,3358,134,EXP8c_maintaskTrials_2_s_rv
pass,6345b7f49677d36bd07c5a10,EXP8c_JF,0,12e7bbe9edfe05a20e9793e4795387b34d2e08054279563b28ec37e80219e412,7999.583134889603,False,keypress,EXP8c_testRsp_rv,446,[],choice-response,Lap,6382505f1517c76bb9b79768,2022-11-26 12:43:59-05:00,single_300ms_ontime_delay_2_tone_Lab_2,3496,135,EXP8c_maintaskTrials_2_s_rv
pass,6345b7f49677d36bd07c5a10,EXP8c_JF,0,12e7bbe9edfe05a20e9793e4795387b34d2e08054279563b28ec37e80219e412,7999.583134889603,False,keypress,EXP8c_testRsp_rv,128,[],choice-response,Lab,6382505f1517c76bb9b79768,2022-11-26 12:43:59-05:00,single_300ms_ontime_delay_2_tone_Lab_8,3348,136,EXP8c_maintaskTrials_2_l_rv
pass,6345b7f49677d36bd07c5a10,EXP8c_JF,0,12e7bbe9edfe05a20e9793e4795387b34d2e08054279563b28ec37e80219e412,7999.583134889603,False,keypress,EXP8c_testRsp_rv,501,[],choice-response,Lab,6382505f1517c76bb9b79768,2022-11-26 12:43:59-05:00,single_300ms_late_delay_2_tone_Lab_8,3780,137,EXP8c_maintaskTrials_2_l_rv
pass,6345b7f49677d36bd07c5a10,EXP8c_JF,0,12e7bbe9edfe05a20e9793e4795387b34d2e08054279563b28ec37e80219e412,7999.583134889603,False,keypress,EXP8c_testRsp_rv,266,[],choice-response,Lab,6382505f1517c76bb9b79768,2022-11-26 12:43:59-05:00,single_300ms_late_delay_2_tone_Lab_6,3544,138,EXP8c_maintaskTrials_2_l_rv
pass,6345b7f49677d36bd07c5a10,EXP8c_JF,0,12e7bbe9edfe05a20e9793e4795387b34d2e08054279563b28ec37e80219e412,7999.583134889603,False,keypress,EXP8c_testRsp_rv,321,[],choice-response,Lap,6382505f1517c76bb9b79768,2022-11-26 12:43:59-05:00,single_300ms_early_delay_2_tone_Lab_3,3321,139,EXP8c_maintaskTrials_2_s_rv
pass,6345b7f49677d36bd07c5a10,EXP8c_JF,0,12e7bbe9edfe05a20e9793e4795387b34d2e08054279563b28ec37e80219e412,7999.583134889603,False,keypress,EXP8c_testRsp_rv,214,[],choice-response,Lab,6382505f1517c76bb9b79768,2022-11-26 12:43:59-05:00,single_300ms_early_delay_2_tone_Lab_8,3311,140,EXP8c_maintaskTrials_2_l_rv
pass,6345b7f49677d36bd07c5a10,EXP8c_JF,0,12e7bbe9edfe05a20e9793e4795387b34d2e08054279563b28ec37e80219e412,7999.583134889603,False,keypress,EXP8c_testRsp_rv,321,[],choice-response,Lap,6382505f1517c76bb9b79768,2022-11-26 12:43:59-05:00,single_300ms_ontime_delay_2_tone_Lab_1,3381,141,EXP8c_maintaskTrials_2_s_rv
pass,6345b7f49677d36bd07c5a10,EXP8c_JF,0,12e7bbe9edfe05a20e9793e4795387b34d2e08054279563b28ec37e80219e412,7999.583134889603,False,keypress,EXP8c_testRsp_rv,378,[],choice-response,Lap,6382505f1517c76bb9b79768,2022-11-26 12:43:59-05:00,single_300ms_late_delay_2_tone_Lab_2,3538,142,EXP8c_maintaskTrials_2_s_rv
pass,6345b7f49677d36bd07c5a10,EXP8c_JF,0,12e7bbe9edfe05a20e9793e4795387b34d2e08054279563b28ec37e80219e412,7999.583134889603,True,keypress,bird_catchRsp,1131,['Bird singing'],choice-response,Bird singing,6382505f1517c76bb9b79768,2022-11-26 12:43:59-05:00,songbird,3836,143,Catch_trials
pass,6345b7f49677d36bd07c5a10,EXP8c_JF,0,12e7bbe9edfe05a20e9793e4795387b34d2e08054279563b28ec37e80219e412,7999.583134889603,False,keypress,EXP8c_testRsp_rv,576,[],choice-response,Lap,6382505f1517c76bb9b79768,2022-11-26 12:43:59-05:00,single_300ms_ontime_delay_2_tone_Lab_7,3737,144,EXP8c_maintaskTrials_2_l_rv
pass,6345b7f49677d36bd07c5a10,EXP8c_JF,0,12e7bbe9edfe05a20e9793e4795387b34d2e08054279563b28ec37e80219e412,7999.583134889603,False,keypress,EXP8c_testRsp_rv,458,[],choice-response,Lap,6382505f1517c76bb9b79768,2022-11-26 12:43:59-05:00,single_300ms_ontime_delay_2_tone_Lab_4,3557,145,EXP8c_maintaskTrials_2_s_rv
pass,6345b7f49677d36bd07c5a10,EXP8c_JF,0,12e7bbe9edfe05a20e9793e4795387b34d2e08054279563b28ec37e80219e412,7999.583134889603,False,keypress,EXP8c_testRsp_rv,423,[],choice-response,Lap,6382505f1517c76bb9b79768,2022-11-26 12:43:59-05:00,single_300ms_early_delay_2_tone_Lab_4,3440,146,EXP8c_maintaskTrials_2_s_rv
pass,6345b7f49677d36bd07c5a10,EXP8c_JF,0,12e7bbe9edfe05a20e9793e4795387b34d2e08054279563b28ec37e80219e412,7999.583134889603,False,keypress,EXP8c_testRsp_rv,447,[],choice-response,Lab,6382505f1517c76bb9b79768,2022-11-26 12:43:59-05:00,single_300ms_early_delay_2_tone_Lab_5,3492,147,EXP8c_maintaskTrials_2_l_rv
pass,6345b7f49677d36bd07c5a10,EXP8c_JF,0,12e7bbe9edfe05a20e9793e4795387b34d2e08054279563b28ec37e80219e412,7999.583134889603,False,keypress,EXP8c_testRsp_rv,743,[],choice-response,Lab,6382505f1517c76bb9b79768,2022-11-26 12:43:59-05:00,single_300ms_early_delay_2_tone_Lab_4,3750,148,EXP8c_maintaskTrials_2_s_rv
pass,6345b7f49677d36bd07c5a10,EXP8c_JF,0,12e7bbe9edfe05a20e9793e4795387b34d2e08054279563b28ec37e80219e412,7999.583134889603,False,keypress,EXP8c_testRsp_rv,822,[],choice-response,Lab,6382505f1517c76bb9b79768,2022-11-26 12:43:59-05:00,single_300ms_late_delay_2_tone_Lab_3,4014,149,EXP8c_maintaskTrials_2_s_rv
pass,6345b7f49677d36bd07c5a10,EXP8c_JF,0,12e7bbe9edfe05a20e9793e4795387b34d2e08054279563b28ec37e80219e412,7999.583134889603,False,keypress,EXP8c_testRsp_rv,693,[],choice-response,Lab,6382505f1517c76bb9b79768,2022-11-26 12:43:59-05:00,single_300ms_early_delay_2_tone_Lab_7,3751,150,EXP8c_maintaskTrials_2_l_rv
pass,6345b7f49677d36bd07c5a10,EXP8c_JF,0,12e7bbe9edfe05a20e9793e4795387b34d2e08054279563b28ec37e80219e412,7999.583134889603,False,keypress,EXP8c_testRsp_rv,666,[],choice-response,Lab,6382505f1517c76bb9b79768,2022-11-26 12:43:59-05:00,single_300ms_ontime_delay_2_tone_Lab_5,3808,151,EXP8c_maintaskTrials_2_l_rv
pass,6345b7f49677d36bd07c5a10,EXP8c_JF,0,12e7bbe9edfe05a20e9793e4795387b34d2e08054279563b28ec37e80219e412,7999.583134889603,False,keypress,EXP8c_testRsp_rv,408,[],choice-response,Lap,6382505f1517c76bb9b79768,2022-11-26 12:43:59-05:00,single_300ms_ontime_delay_2_tone_Lab_3,3470,152,EXP8c_maintaskTrials_2_s_rv
pass,6345b7f49677d36bd07c5a10,EXP8c_JF,0,12e7bbe9edfe05a20e9793e4795387b34d2e08054279563b28ec37e80219e412,7999.583134889603,False,keypress,EXP8c_testRsp_rv,725,[],choice-response,Lab,6382505f1517c76bb9b79768,2022-11-26 12:43:59-05:00,single_300ms_ontime_delay_2_tone_Lab_7,3893,153,EXP8c_maintaskTrials_2_l_rv
pass,6345b7f49677d36bd07c5a10,EXP8c_JF,0,12e7bbe9edfe05a20e9793e4795387b34d2e08054279563b28ec37e80219e412,7999.583134889603,False,keypress,EXP8c_testRsp_rv,335,[],choice-response,Lab,6382505f1517c76bb9b79768,2022-11-26 12:43:59-05:00,single_300ms_late_delay_2_tone_Lab_2,3502,154,EXP8c_maintaskTrials_2_s_rv
pass,6345b7f49677d36bd07c5a10,EXP8c_JF,0,12e7bbe9edfe05a20e9793e4795387b34d2e08054279563b28ec37e80219e412,7999.583134889603,True,keypress,cat_catchRsp,960,['Cat meowing'],choice-response,Cat meowing,6382505f1517c76bb9b79768,2022-11-26 12:43:59-05:00,cat_meowing,3670,155,Catch_trials
pass,6345b7f49677d36bd07c5a10,EXP8c_JF,0,12e7bbe9edfe05a20e9793e4795387b34d2e08054279563b28ec37e80219e412,7999.583134889603,False,keypress,EXP8c_testRsp_rv,1047,[],choice-response,Lab,6382505f1517c76bb9b79768,2022-11-26 12:43:59-05:00,single_300ms_late_delay_2_tone_Lab_4,4252,156,EXP8c_maintaskTrials_2_s_rv
pass,6345b7f49677d36bd07c5a10,EXP8c_JF,0,12e7bbe9edfe05a20e9793e4795387b34d2e08054279563b28ec37e80219e412,7999.583134889603,False,keypress,EXP8c_testRsp_rv,443,[],choice-response,Lap,6382505f1517c76bb9b79768,2022-11-26 12:43:59-05:00,single_300ms_early_delay_2_tone_Lab_1,3369,157,EXP8c_maintaskTrials_2_s_rv
pass,6345b7f49677d36bd07c5a10,EXP8c_JF,0,12e7bbe9edfe05a20e9793e4795387b34d2e08054279563b28ec37e80219e412,7999.583134889603,False,keypress,EXP8c_testRsp_rv,229,[],choice-response,Lab,6382505f1517c76bb9b79768,2022-11-26 12:43:59-05:00,single_300ms_early_delay_2_tone_Lab_3,3223,158,EXP8c_maintaskTrials_2_s_rv
pass,6345b7f49677d36bd07c5a10,EXP8c_JF,0,12e7bbe9edfe05a20e9793e4795387b34d2e08054279563b28ec37e80219e412,7999.583134889603,False,keypress,EXP8c_testRsp_rv,239,[],choice-response,Lab,6382505f1517c76bb9b79768,2022-11-26 12:43:59-05:00,single_300ms_late_delay_2_tone_Lab_5,3433,159,EXP8c_maintaskTrials_2_l_rv
pass,6345b7f49677d36bd07c5a10,EXP8c_JF,0,12e7bbe9edfe05a20e9793e4795387b34d2e08054279563b28ec37e80219e412,7999.583134889603,False,keypress,EXP8c_testRsp_rv,1296,[],choice-response,Lab,6382505f1517c76bb9b79768,2022-11-26 12:43:59-05:00,single_300ms_late_delay_2_tone_Lab_8,4575,160,EXP8c_maintaskTrials_2_l_rv
pass,6345b7f49677d36bd07c5a10,EXP8c_JF,0,12e7bbe9edfe05a20e9793e4795387b34d2e08054279563b28ec37e80219e412,7999.583134889603,False,keypress,EXP8c_testRsp_rv,524,[],choice-response,Lap,6382505f1517c76bb9b79768,2022-11-26 12:43:59-05:00,single_300ms_ontime_delay_2_tone_Lab_2,3584,161,EXP8c_maintaskTrials_2_s_rv
pass,6345b7f49677d36bd07c5a10,EXP8c_JF,0,12e7bbe9edfe05a20e9793e4795387b34d2e08054279563b28ec37e80219e412,7999.583134889603,False,keypress,EXP8c_testRsp_rv,215,[],choice-response,Lab,6382505f1517c76bb9b79768,2022-11-26 12:43:59-05:00,single_300ms_late_delay_2_tone_Lab_7,3464,162,EXP8c_maintaskTrials_2_l_rv
pass,6345b7f49677d36bd07c5a10,EXP8c_JF,0,12e7bbe9edfe05a20e9793e4795387b34d2e08054279563b28ec37e80219e412,7999.583134889603,False,keypress,EXP8c_testRsp_rv,409,[],choice-response,Lap,6382505f1517c76bb9b79768,2022-11-26 12:43:59-05:00,single_300ms_early_delay_2_tone_Lab_2,3401,163,EXP8c_maintaskTrials_2_s_rv
pass,6345b7f49677d36bd07c5a10,EXP8c_JF,0,12e7bbe9edfe05a20e9793e4795387b34d2e08054279563b28ec37e80219e412,7999.583134889603,False,keypress,EXP8c_testRsp_rv,433,[],choice-response,Lap,6382505f1517c76bb9b79768,2022-11-26 12:43:59-05:00,single_300ms_early_delay_2_tone_Lab_6,3496,164,EXP8c_maintaskTrials_2_l_rv
pass,6345b7f49677d36bd07c5a10,EXP8c_JF,0,12e7bbe9edfe05a20e9793e4795387b34d2e08054279563b28ec37e80219e412,7999.583134889603,False,keypress,EXP8c_testRsp_rv,1514,[],choice-response,Lap,6382505f1517c76bb9b79768,2022-11-26 12:43:59-05:00,single_300ms_ontime_delay_2_tone_Lab_1,4579,165,EXP8c_maintaskTrials_2_s_rv
pass,6345b7f49677d36bd07c5a10,EXP8c_JF,0,12e7bbe9edfe05a20e9793e4795387b34d2e08054279563b28ec37e80219e412,7999.583134889603,False,keypress,EXP8c_testRsp_rv,702,[],choice-response,Lap,6382505f1517c76bb9b79768,2022-11-26 12:43:59-05:00,single_300ms_early_delay_2_tone_Lab_8,3791,166,EXP8c_maintaskTrials_2_l_rv
pass,6345b7f49677d36bd07c5a10,EXP8c_JF,0,12e7bbe9edfe05a20e9793e4795387b34d2e08054279563b28ec37e80219e412,7999.583134889603,False,keypress,bird_catchRsp,2421,['Bird singing'],choice-response,Frog croaking,6382505f1517c76bb9b79768,2022-11-26 12:43:59-05:00,songbird,5171,167,Catch_trials
pass,6345b7f49677d36bd07c5a10,EXP8c_JF,0,12e7bbe9edfe05a20e9793e4795387b34d2e08054279563b28ec37e80219e412,7999.583134889603,False,keypress,EXP8c_testRsp_rv,2332,[],choice-response,Lap,6382505f1517c76bb9b79768,2022-11-26 12:43:59-05:00,single_300ms_ontime_delay_2_tone_Lab_6,5468,168,EXP8c_maintaskTrials_2_l_rv
pass,6345b7f49677d36bd07c5a10,EXP8c_JF,0,12e7bbe9edfe05a20e9793e4795387b34d2e08054279563b28ec37e80219e412,7999.583134889603,False,keypress,EXP8c_testRsp_rv,1459,[],choice-response,Lab,6382505f1517c76bb9b79768,2022-11-26 12:43:59-05:00,single_300ms_ontime_delay_2_tone_Lab_4,4579,169,EXP8c_maintaskTrials_2_s_rv
pass,6345b7f49677d36bd07c5a10,EXP8c_JF,0,12e7bbe9edfe05a20e9793e4795387b34d2e08054279563b28ec37e80219e412,7999.583134889603,False,keypress,EXP8c_testRsp_rv,635,[],choice-response,Lab,6382505f1517c76bb9b79768,2022-11-26 12:43:59-05:00,single_300ms_early_delay_2_tone_Lab_5,3674,170,EXP8c_maintaskTrials_2_l_rv
pass,6345b7f49677d36bd07c5a10,EXP8c_JF,0,12e7bbe9edfe05a20e9793e4795387b34d2e08054279563b28ec37e80219e412,7999.583134889603,False,keypress,EXP8c_testRsp_rv,1297,[],choice-response,Lap,6382505f1517c76bb9b79768,2022-11-26 12:43:59-05:00,single_300ms_late_delay_2_tone_Lab_6,4540,171,EXP8c_maintaskTrials_2_l_rv
pass,6345b7f49677d36bd07c5a10,EXP8c_JF,0,12e7bbe9edfe05a20e9793e4795387b34d2e08054279563b28ec37e80219e412,7999.583134889603,False,keypress,EXP8c_testRsp_rv,2045,[],choice-response,Lap,6382505f1517c76bb9b79768,2022-11-26 12:43:59-05:00,single_300ms_late_delay_2_tone_Lab_1,5190,172,EXP8c_maintaskTrials_2_s_rv
pass,6345b7f49677d36bd07c5a10,EXP8c_JF,0,12e7bbe9edfe05a20e9793e4795387b34d2e08054279563b28ec37e80219e412,7999.583134889603,False,keypress,EXP8c_testRsp_rv,8615,[],choice-response,Lab,6382505f1517c76bb9b79768,2022-11-26 12:43:59-05:00,single_300ms_ontime_delay_2_tone_Lab_8,11940,173,EXP8c_maintaskTrials_2_l_rv
pass,6345b7f49677d36bd07c5a10,EXP8c_JF,0,12e7bbe9edfe05a20e9793e4795387b34d2e08054279563b28ec37e80219e412,7999.583134889603,False,keypress,EXP8c_testRsp_rv,2321,[],choice-response,Lap,6382505f1517c76bb9b79768,2022-11-26 12:43:59-05:00,single_300ms_late_delay_2_tone_Lab_2,5471,174,EXP8c_maintaskTrials_2_s_rv
pass,6345b7f49677d36bd07c5a10,EXP8c_JF,0,12e7bbe9edfe05a20e9793e4795387b34d2e08054279563b28ec37e80219e412,7999.583134889603,False,keypress,EXP8c_testRsp_rv,844,[],choice-response,Lap,6382505f1517c76bb9b79768,2022-11-26 12:43:59-05:00,single_300ms_ontime_delay_2_tone_Lab_6,3994,175,EXP8c_maintaskTrials_2_l_rv
pass,6345b7f49677d36bd07c5a10,EXP8c_JF,0,12e7bbe9edfe05a20e9793e4795387b34d2e08054279563b28ec37e80219e412,7999.583134889603,False,keypress,EXP8c_testRsp_rv,71,[],choice-response,Lap,6382505f1517c76bb9b79768,2022-11-26 12:43:59-05:00,single_300ms_early_delay_2_tone_Lab_4,3083,176,EXP8c_maintaskTrials_2_s_rv
pass,6345b7f49677d36bd07c5a10,EXP8c_JF,0,12e7bbe9edfe05a20e9793e4795387b34d2e08054279563b28ec37e80219e412,7999.583134889603,False,keypress,EXP8c_testRsp_rv,3748,[],choice-response,Lap,6382505f1517c76bb9b79768,2022-11-26 12:43:59-05:00,single_300ms_late_delay_2_tone_Lab_7,7010,177,EXP8c_maintaskTrials_2_l_rv
pass,6345b7f49677d36bd07c5a10,EXP8c_JF,0,12e7bbe9edfe05a20e9793e4795387b34d2e08054279563b28ec37e80219e412,7999.583134889603,False,keypress,EXP8c_testRsp_rv,356,[],choice-response,Lap,6382505f1517c76bb9b79768,2022-11-26 12:43:59-05:00,single_300ms_early_delay_2_tone_Lab_1,3315,178,EXP8c_maintaskTrials_2_s_rv
pass,6345b7f49677d36bd07c5a10,EXP8c_JF,0,12e7bbe9edfe05a20e9793e4795387b34d2e08054279563b28ec37e80219e412,7999.583134889603,True,keypress,cat_catchRsp,689,['Cat meowing'],choice-response,Cat meowing,6382505f1517c76bb9b79768,2022-11-26 12:43:59-05:00,cat_meowing,3393,179,Catch_trials
pass,6345b7f49677d36bd07c5a10,EXP8c_JF,0,12e7bbe9edfe05a20e9793e4795387b34d2e08054279563b28ec37e80219e412,7999.583134889603,False,keypress,EXP8c_testRsp_rv,383,[],choice-response,Lap,6382505f1517c76bb9b79768,2022-11-26 12:43:59-05:00,single_300ms_early_delay_2_tone_Lab_3,3388,180,EXP8c_maintaskTrials_2_s_rv
pass,6345b7f49677d36bd07c5a10,EXP8c_JF,0,12e7bbe9edfe05a20e9793e4795387b34d2e08054279563b28ec37e80219e412,7999.583134889603,False,keypress,EXP8c_testRsp_rv,271,[],choice-response,Lap,6382505f1517c76bb9b79768,2022-11-26 12:43:59-05:00,single_300ms_late_delay_2_tone_Lab_4,3476,181,EXP8c_maintaskTrials_2_s_rv
pass,6345b7f49677d36bd07c5a10,EXP8c_JF,0,12e7bbe9edfe05a20e9793e4795387b34d2e08054279563b28ec37e80219e412,7999.583134889603,False,keypress,EXP8c_testRsp_rv,939,[],choice-response,Lap,6382505f1517c76bb9b79768,2022-11-26 12:43:59-05:00,single_300ms_late_delay_2_tone_Lab_6,4193,182,EXP8c_maintaskTrials_2_l_rv
pass,6345b7f49677d36bd07c5a10,EXP8c_JF,0,12e7bbe9edfe05a20e9793e4795387b34d2e08054279563b28ec37e80219e412,7999.583134889603,False,keypress,EXP8c_testRsp_rv,461,[],choice-response,Lap,6382505f1517c76bb9b79768,2022-11-26 12:43:59-05:00,single_300ms_ontime_delay_2_tone_Lab_5,3607,183,EXP8c_maintaskTrials_2_l_rv
pass,6345b7f49677d36bd07c5a10,EXP8c_JF,0,12e7bbe9edfe05a20e9793e4795387b34d2e08054279563b28ec37e80219e412,7999.583134889603,False,keypress,EXP8c_testRsp_rv,221,[],choice-response,Lap,6382505f1517c76bb9b79768,2022-11-26 12:43:59-05:00,single_300ms_late_delay_2_tone_Lab_3,3408,184,EXP8c_maintaskTrials_2_s_rv
pass,6345b7f49677d36bd07c5a10,EXP8c_JF,0,12e7bbe9edfe05a20e9793e4795387b34d2e08054279563b28ec37e80219e412,7999.583134889603,False,keypress,EXP8c_testRsp_rv,237,[],choice-response,Lap,6382505f1517c76bb9b79768,2022-11-26 12:43:59-05:00,single_300ms_ontime_delay_2_tone_Lab_1,3325,185,EXP8c_maintaskTrials_2_s_rv
pass,6345b7f49677d36bd07c5a10,EXP8c_JF,0,12e7bbe9edfe05a20e9793e4795387b34d2e08054279563b28ec37e80219e412,7999.583134889603,False,keypress,EXP8c_testRsp_rv,215,[],choice-response,Lap,6382505f1517c76bb9b79768,2022-11-26 12:43:59-05:00,single_300ms_late_delay_2_tone_Lab_5,3421,186,EXP8c_maintaskTrials_2_l_rv
pass,6345b7f49677d36bd07c5a10,EXP8c_JF,0,12e7bbe9edfe05a20e9793e4795387b34d2e08054279563b28ec37e80219e412,7999.583134889603,False,keypress,EXP8c_testRsp_rv,2677,[],choice-response,Lab,6382505f1517c76bb9b79768,2022-11-26 12:43:59-05:00,single_300ms_early_delay_2_tone_Lab_7,5755,187,EXP8c_maintaskTrials_2_l_rv
pass,6345b7f49677d36bd07c5a10,EXP8c_JF,0,12e7bbe9edfe05a20e9793e4795387b34d2e08054279563b28ec37e80219e412,7999.583134889603,False,keypress,EXP8c_testRsp_rv,838,[],choice-response,Lab,6382505f1517c76bb9b79768,2022-11-26 12:43:59-05:00,single_300ms_ontime_delay_2_tone_Lab_7,4019,188,EXP8c_maintaskTrials_2_l_rv
pass,6345b7f49677d36bd07c5a10,EXP8c_JF,0,12e7bbe9edfe05a20e9793e4795387b34d2e08054279563b28ec37e80219e412,7999.583134889603,False,keypress,EXP8c_testRsp_rv,28,[],choice-response,Lap,6382505f1517c76bb9b79768,2022-11-26 12:43:59-05:00,single_300ms_early_delay_2_tone_Lab_6,3095,189,EXP8c_maintaskTrials_2_l_rv
pass,6345b7f49677d36bd07c5a10,EXP8c_JF,0,12e7bbe9edfe05a20e9793e4795387b34d2e08054279563b28ec37e80219e412,7999.583134889603,False,keypress,EXP8c_testRsp_rv,376,[],choice-response,Lab,6382505f1517c76bb9b79768,2022-11-26 12:43:59-05:00,single_300ms_ontime_delay_2_tone_Lab_4,3489,190,EXP8c_maintaskTrials_2_s_rv
pass,6345b7f49677d36bd07c5a10,EXP8c_JF,0,12e7bbe9edfe05a20e9793e4795387b34d2e08054279563b28ec37e80219e412,7999.583134889603,True,keypress,bird_catchRsp,1483,['Bird singing'],choice-response,Bird singing,6382505f1517c76bb9b79768,2022-11-26 12:43:59-05:00,songbird,4182,191,Catch_trials
pass,6345b7f49677d36bd07c5a10,EXP8c_JF,0,12e7bbe9edfe05a20e9793e4795387b34d2e08054279563b28ec37e80219e412,7999.583134889603,False,keypress,EXP8c_testRsp_rv,423,[],choice-response,Lab,6382505f1517c76bb9b79768,2022-11-26 12:43:59-05:00,single_300ms_late_delay_2_tone_Lab_8,3721,192,EXP8c_maintaskTrials_2_l_rv
pass,6345b7f49677d36bd07c5a10,EXP8c_JF,0,12e7bbe9edfe05a20e9793e4795387b34d2e08054279563b28ec37e80219e412,7999.583134889603,False,keypress,EXP8c_testRsp_rv,306,[],choice-response,Lab,6382505f1517c76bb9b79768,2022-11-26 12:43:59-05:00,single_300ms_early_delay_2_tone_Lab_5,3344,193,EXP8c_maintaskTrials_2_l_rv
pass,6345b7f49677d36bd07c5a10,EXP8c_JF,0,12e7bbe9edfe05a20e9793e4795387b34d2e08054279563b28ec37e80219e412,7999.583134889603,False,keypress,EXP8c_testRsp_rv,854,[],choice-response,Lap,6382505f1517c76bb9b79768,2022-11-26 12:43:59-05:00,single_300ms_ontime_delay_2_tone_Lab_3,3929,194,EXP8c_maintaskTrials_2_s_rv
pass,6345b7f49677d36bd07c5a10,EXP8c_JF,0,12e7bbe9edfe05a20e9793e4795387b34d2e08054279563b28ec37e80219e412,7999.583134889603,False,keypress,EXP8c_testRsp_rv,311,[],choice-response,Lap,6382505f1517c76bb9b79768,2022-11-26 12:43:59-05:00,single_300ms_late_delay_2_tone_Lab_1,3469,195,EXP8c_maintaskTrials_2_s_rv
pass,6345b7f49677d36bd07c5a10,EXP8c_JF,0,12e7bbe9edfe05a20e9793e4795387b34d2e08054279563b28ec37e80219e412,7999.583134889603,False,keypress,EXP8c_testRsp_rv,377,[],choice-response,Lab,6382505f1517c76bb9b79768,2022-11-26 12:43:59-05:00,single_300ms_ontime_delay_2_tone_Lab_8,3567,196,EXP8c_maintaskTrials_2_l_rv
pass,6345b7f49677d36bd07c5a10,EXP8c_JF,0,12e7bbe9edfe05a20e9793e4795387b34d2e08054279563b28ec37e80219e412,7999.583134889603,False,keypress,EXP8c_testRsp_rv,291,[],choice-response,Lab,6382505f1517c76bb9b79768,2022-11-26 12:43:59-05:00,single_300ms_early_delay_2_tone_Lab_8,3394,197,EXP8c_maintaskTrials_2_l_rv
pass,6345b7f49677d36bd07c5a10,EXP8c_JF,0,12e7bbe9edfe05a20e9793e4795387b34d2e08054279563b28ec37e80219e412,7999.583134889603,False,keypress,EXP8c_testRsp_rv,744,[],choice-response,Lap,6382505f1517c76bb9b79768,2022-11-26 12:43:59-05:00,single_300ms_early_delay_2_tone_Lab_2,3727,198,EXP8c_maintaskTrials_2_s_rv
pass,6345b7f49677d36bd07c5a10,EXP8c_JF,0,12e7bbe9edfe05a20e9793e4795387b34d2e08054279563b28ec37e80219e412,7999.583134889603,False,keypress,EXP8c_testRsp_rv,187,[],choice-response,Lap,6382505f1517c76bb9b79768,2022-11-26 12:43:59-05:00,single_300ms_ontime_delay_2_tone_Lab_2,3238,199,EXP8c_maintaskTrials_2_s_rv
pass,6345b7f49677d36bd07c5a10,EXP8c_JF,0,12e7bbe9edfe05a20e9793e4795387b34d2e08054279563b28ec37e80219e412,7999.583134889603,False,keypress,EXP8c_testRsp_rv,444,[],choice-response,Lab,6382505f1517c76bb9b79768,2022-11-26 12:43:59-05:00,single_300ms_early_delay_2_tone_Lab_6,3494,200,EXP8c_maintaskTrials_2_l_rv
pass,6345b7f49677d36bd07c5a10,EXP8c_JF,0,12e7bbe9edfe05a20e9793e4795387b34d2e08054279563b28ec37e80219e412,7999.583134889603,False,keypress,EXP8c_testRsp_rv,633,[],choice-response,Lap,6382505f1517c76bb9b79768,2022-11-26 12:43:59-05:00,single_300ms_ontime_delay_2_tone_Lab_3,3714,201,EXP8c_maintaskTrials_2_s_rv
pass,6345b7f49677d36bd07c5a10,EXP8c_JF,0,12e7bbe9edfe05a20e9793e4795387b34d2e08054279563b28ec37e80219e412,7999.583134889603,False,keypress,EXP8c_testRsp_rv,498,[],choice-response,Lap,6382505f1517c76bb9b79768,2022-11-26 12:43:59-05:00,single_300ms_early_delay_2_tone_Lab_3,3483,202,EXP8c_maintaskTrials_2_s_rv
pass,6345b7f49677d36bd07c5a10,EXP8c_JF,0,12e7bbe9edfe05a20e9793e4795387b34d2e08054279563b28ec37e80219e412,7999.583134889603,True,keypress,cat_catchRsp,524,['Cat meowing'],choice-response,Cat meowing,6382505f1517c76bb9b79768,2022-11-26 12:43:59-05:00,cat_meowing,3243,203,Catch_trials
pass,6345b7f49677d36bd07c5a10,EXP8c_JF,0,12e7bbe9edfe05a20e9793e4795387b34d2e08054279563b28ec37e80219e412,7999.583134889603,False,keypress,EXP8c_testRsp_rv,528,[],choice-response,Lap,6382505f1517c76bb9b79768,2022-11-26 12:43:59-05:00,single_300ms_ontime_delay_2_tone_Lab_1,3586,204,EXP8c_maintaskTrials_2_s_rv
pass,6345b7f49677d36bd07c5a10,EXP8c_JF,0,12e7bbe9edfe05a20e9793e4795387b34d2e08054279563b28ec37e80219e412,7999.583134889603,False,keypress,EXP8c_testRsp_rv,469,[],choice-response,Lap,6382505f1517c76bb9b79768,2022-11-26 12:43:59-05:00,single_300ms_early_delay_2_tone_Lab_4,3478,205,EXP8c_maintaskTrials_2_s_rv
pass,6345b7f49677d36bd07c5a10,EXP8c_JF,0,12e7bbe9edfe05a20e9793e4795387b34d2e08054279563b28ec37e80219e412,7999.583134889603,False,keypress,EXP8c_testRsp_rv,144,[],choice-response,Lap,6382505f1517c76bb9b79768,2022-11-26 12:43:59-05:00,single_300ms_ontime_delay_2_tone_Lab_5,3312,206,EXP8c_maintaskTrials_2_l_rv
pass,6345b7f49677d36bd07c5a10,EXP8c_JF,0,12e7bbe9edfe05a20e9793e4795387b34d2e08054279563b28ec37e80219e412,7999.583134889603,False,keypress,EXP8c_testRsp_rv,116,[],choice-response,Lap,6382505f1517c76bb9b79768,2022-11-26 12:43:59-05:00,single_300ms_late_delay_2_tone_Lab_5,3320,207,EXP8c_maintaskTrials_2_l_rv
pass,6345b7f49677d36bd07c5a10,EXP8c_JF,0,12e7bbe9edfe05a20e9793e4795387b34d2e08054279563b28ec37e80219e412,7999.583134889603,False,keypress,EXP8c_testRsp_rv,656,[],choice-response,Lap,6382505f1517c76bb9b79768,2022-11-26 12:43:59-05:00,single_300ms_late_delay_2_tone_Lab_2,3817,208,EXP8c_maintaskTrials_2_s_rv
pass,6345b7f49677d36bd07c5a10,EXP8c_JF,0,12e7bbe9edfe05a20e9793e4795387b34d2e08054279563b28ec37e80219e412,7999.583134889603,False,keypress,EXP8c_testRsp_rv,385,[],choice-response,Lap,6382505f1517c76bb9b79768,2022-11-26 12:43:59-05:00,single_300ms_late_delay_2_tone_Lab_4,3582,209,EXP8c_maintaskTrials_2_s_rv
pass,6345b7f49677d36bd07c5a10,EXP8c_JF,0,12e7bbe9edfe05a20e9793e4795387b34d2e08054279563b28ec37e80219e412,7999.583134889603,False,keypress,EXP8c_testRsp_rv,655,[],choice-response,Lab,6382505f1517c76bb9b79768,2022-11-26 12:43:59-05:00,single_300ms_early_delay_2_tone_Lab_8,3764,210,EXP8c_maintaskTrials_2_l_rv
pass,6345b7f49677d36bd07c5a10,EXP8c_JF,0,12e7bbe9edfe05a20e9793e4795387b34d2e08054279563b28ec37e80219e412,7999.583134889603,False,keypress,EXP8c_testRsp_rv,812,[],choice-response,Lap,6382505f1517c76bb9b79768,2022-11-26 12:43:59-05:00,single_300ms_ontime_delay_2_tone_Lab_8,4004,211,EXP8c_maintaskTrials_2_l_rv
pass,6345b7f49677d36bd07c5a10,EXP8c_JF,0,12e7bbe9edfe05a20e9793e4795387b34d2e08054279563b28ec37e80219e412,7999.583134889603,False,keypress,EXP8c_testRsp_rv,1265,[],choice-response,Lap,6382505f1517c76bb9b79768,2022-11-26 12:43:59-05:00,single_300ms_ontime_delay_2_tone_Lab_6,4393,212,EXP8c_maintaskTrials_2_l_rv
pass,6345b7f49677d36bd07c5a10,EXP8c_JF,0,12e7bbe9edfe05a20e9793e4795387b34d2e08054279563b28ec37e80219e412,7999.583134889603,False,keypress,EXP8c_testRsp_rv,878,[],choice-response,Lap,6382505f1517c76bb9b79768,2022-11-26 12:43:59-05:00,single_300ms_ontime_delay_2_tone_Lab_2,3941,213,EXP8c_maintaskTrials_2_s_rv
pass,6345b7f49677d36bd07c5a10,EXP8c_JF,0,12e7bbe9edfe05a20e9793e4795387b34d2e08054279563b28ec37e80219e412,7999.583134889603,False,keypress,EXP8c_testRsp_rv,11291,[],choice-response,Lap,6382505f1517c76bb9b79768,2022-11-26 12:43:59-05:00,single_300ms_ontime_delay_2_tone_Lab_4,14425,214,EXP8c_maintaskTrials_2_s_rv
pass,6345b7f49677d36bd07c5a10,EXP8c_JF,0,12e7bbe9edfe05a20e9793e4795387b34d2e08054279563b28ec37e80219e412,7999.583134889603,True,keypress,bird_catchRsp,2535,['Bird singing'],choice-response,Bird singing,6382505f1517c76bb9b79768,2022-11-26 12:43:59-05:00,songbird,5264,215,Catch_trials
pass,6345b7f49677d36bd07c5a10,EXP8c_JF,0,12e7bbe9edfe05a20e9793e4795387b34d2e08054279563b28ec37e80219e412,7999.583134889603,False,keypress,EXP8c_testRsp_rv,523,[],choice-response,Lap,6382505f1517c76bb9b79768,2022-11-26 12:43:59-05:00,single_300ms_early_delay_2_tone_Lab_5,3561,216,EXP8c_maintaskTrials_2_l_rv
pass,6345b7f49677d36bd07c5a10,EXP8c_JF,0,12e7bbe9edfe05a20e9793e4795387b34d2e08054279563b28ec37e80219e412,7999.583134889603,False,keypress,EXP8c_testRsp_rv,471,[],choice-response,Lap,6382505f1517c76bb9b79768,2022-11-26 12:43:59-05:00,single_300ms_late_delay_2_tone_Lab_1,3612,217,EXP8c_maintaskTrials_2_s_rv
pass,6345b7f49677d36bd07c5a10,EXP8c_JF,0,12e7bbe9edfe05a20e9793e4795387b34d2e08054279563b28ec37e80219e412,7999.583134889603,False,keypress,EXP8c_testRsp_rv,513,[],choice-response,Lap,6382505f1517c76bb9b79768,2022-11-26 12:43:59-05:00,single_300ms_early_delay_2_tone_Lab_1,3450,218,EXP8c_maintaskTrials_2_s_rv
pass,6345b7f49677d36bd07c5a10,EXP8c_JF,0,12e7bbe9edfe05a20e9793e4795387b34d2e08054279563b28ec37e80219e412,7999.583134889603,False,keypress,EXP8c_testRsp_rv,628,[],choice-response,Lab,6382505f1517c76bb9b79768,2022-11-26 12:43:59-05:00,single_300ms_late_delay_2_tone_Lab_7,3914,219,EXP8c_maintaskTrials_2_l_rv
pass,6345b7f49677d36bd07c5a10,EXP8c_JF,0,12e7bbe9edfe05a20e9793e4795387b34d2e08054279563b28ec37e80219e412,7999.583134889603,False,keypress,EXP8c_testRsp_rv,620,[],choice-response,Lab,6382505f1517c76bb9b79768,2022-11-26 12:43:59-05:00,single_300ms_ontime_delay_2_tone_Lab_7,3779,220,EXP8c_maintaskTrials_2_l_rv
pass,6345b7f49677d36bd07c5a10,EXP8c_JF,0,12e7bbe9edfe05a20e9793e4795387b34d2e08054279563b28ec37e80219e412,7999.583134889603,False,keypress,EXP8c_testRsp_rv,386,[],choice-response,Lab,6382505f1517c76bb9b79768,2022-11-26 12:43:59-05:00,single_300ms_late_delay_2_tone_Lab_6,3625,221,EXP8c_maintaskTrials_2_l_rv
pass,6345b7f49677d36bd07c5a10,EXP8c_JF,0,12e7bbe9edfe05a20e9793e4795387b34d2e08054279563b28ec37e80219e412,7999.583134889603,False,keypress,EXP8c_testRsp_rv,344,[],choice-response,Lab,6382505f1517c76bb9b79768,2022-11-26 12:43:59-05:00,single_300ms_late_delay_2_tone_Lab_8,3619,222,EXP8c_maintaskTrials_2_l_rv
pass,6345b7f49677d36bd07c5a10,EXP8c_JF,0,12e7bbe9edfe05a20e9793e4795387b34d2e08054279563b28ec37e80219e412,7999.583134889603,False,keypress,EXP8c_testRsp_rv,612,[],choice-response,Lab,6382505f1517c76bb9b79768,2022-11-26 12:43:59-05:00,single_300ms_early_delay_2_tone_Lab_7,3681,223,EXP8c_maintaskTrials_2_l_rv
pass,6345b7f49677d36bd07c5a10,EXP8c_JF,0,12e7bbe9edfe05a20e9793e4795387b34d2e08054279563b28ec37e80219e412,7999.583134889603,False,keypress,EXP8c_testRsp_rv,449,[],choice-response,Lap,6382505f1517c76bb9b79768,2022-11-26 12:43:59-05:00,single_300ms_early_delay_2_tone_Lab_2,3438,224,EXP8c_maintaskTrials_2_s_rv
pass,6345b7f49677d36bd07c5a10,EXP8c_JF,0,12e7bbe9edfe05a20e9793e4795387b34d2e08054279563b28ec37e80219e412,7999.583134889603,False,keypress,EXP8c_testRsp_rv,723,[],choice-response,Lap,6382505f1517c76bb9b79768,2022-11-26 12:43:59-05:00,single_300ms_late_delay_2_tone_Lab_3,3926,225,EXP8c_maintaskTrials_2_s_rv
pass,6345b7f49677d36bd07c5a10,EXP8c_JF,0,12e7bbe9edfe05a20e9793e4795387b34d2e08054279563b28ec37e80219e412,7999.583134889603,False,keypress,EXP8c_testRsp_rv,1459,[],choice-response,Lab,6382505f1517c76bb9b79768,2022-11-26 12:43:59-05:00,single_300ms_early_delay_2_tone_Lab_6,4522,226,EXP8c_maintaskTrials_2_l_rv
pass,6345b7f49677d36bd07c5a10,EXP8c_JF,0,12e7bbe9edfe05a20e9793e4795387b34d2e08054279563b28ec37e80219e412,7999.583134889603,True,keypress,cat_catchRsp,28275,['Cat meowing'],choice-response,Cat meowing,6382505f1517c76bb9b79768,2022-11-26 12:43:59-05:00,cat_meowing,30966,227,Catch_trials
pass,6345b7f49677d36bd07c5a10,EXP8c_JF,0,12e7bbe9edfe05a20e9793e4795387b34d2e08054279563b28ec37e80219e412,7999.583134889603,False,keypress,EXP8c_testRsp_rv,895,[],choice-response,Lap,6382505f1517c76bb9b79768,2022-11-26 12:43:59-05:00,single_300ms_early_delay_2_tone_Lab_1,4029,228,EXP8c_maintaskTrials_2_s_rv
pass,6345b7f49677d36bd07c5a10,EXP8c_JF,0,12e7bbe9edfe05a20e9793e4795387b34d2e08054279563b28ec37e80219e412,7999.583134889603,False,keypress,EXP8c_testRsp_rv,3373,[],choice-response,Lab,6382505f1517c76bb9b79768,2022-11-26 12:43:59-05:00,single_300ms_early_delay_2_tone_Lab_7,6448,229,EXP8c_maintaskTrials_2_l_rv
pass,6345b7f49677d36bd07c5a10,EXP8c_JF,0,12e7bbe9edfe05a20e9793e4795387b34d2e08054279563b28ec37e80219e412,7999.583134889603,False,keypress,EXP8c_testRsp_rv,2599,[],choice-response,Lab,6382505f1517c76bb9b79768,2022-11-26 12:43:59-05:00,single_300ms_ontime_delay_2_tone_Lab_4,5700,230,EXP8c_maintaskTrials_2_s_rv
pass,6345b7f49677d36bd07c5a10,EXP8c_JF,0,12e7bbe9edfe05a20e9793e4795387b34d2e08054279563b28ec37e80219e412,7999.583134889603,False,keypress,EXP8c_testRsp_rv,1131,[],choice-response,Lap,6382505f1517c76bb9b79768,2022-11-26 12:43:59-05:00,single_300ms_early_delay_2_tone_Lab_3,4117,231,EXP8c_maintaskTrials_2_s_rv
pass,6345b7f49677d36bd07c5a10,EXP8c_JF,0,12e7bbe9edfe05a20e9793e4795387b34d2e08054279563b28ec37e80219e412,7999.583134889603,False,keypress,EXP8c_testRsp_rv,8189,[],choice-response,Lap,6382505f1517c76bb9b79768,2022-11-26 12:43:59-05:00,single_300ms_late_delay_2_tone_Lab_1,11327,232,EXP8c_maintaskTrials_2_s_rv
pass,6345b7f49677d36bd07c5a10,EXP8c_JF,0,12e7bbe9edfe05a20e9793e4795387b34d2e08054279563b28ec37e80219e412,7999.583134889603,False,keypress,EXP8c_testRsp_rv,79,[],choice-response,Lap,6382505f1517c76bb9b79768,2022-11-26 12:43:59-05:00,single_300ms_early_delay_2_tone_Lab_4,3110,233,EXP8c_maintaskTrials_2_s_rv
pass,6345b7f49677d36bd07c5a10,EXP8c_JF,0,12e7bbe9edfe05a20e9793e4795387b34d2e08054279563b28ec37e80219e412,7999.583134889603,False,keypress,EXP8c_testRsp_rv,183,[],choice-response,Lap,6382505f1517c76bb9b79768,2022-11-26 12:43:59-05:00,single_300ms_late_delay_2_tone_Lab_6,3414,234,EXP8c_maintaskTrials_2_l_rv
pass,6345b7f49677d36bd07c5a10,EXP8c_JF,0,12e7bbe9edfe05a20e9793e4795387b34d2e08054279563b28ec37e80219e412,7999.583134889603,False,keypress,EXP8c_testRsp_rv,23,[],choice-response,Lap,6382505f1517c76bb9b79768,2022-11-26 12:43:59-05:00,single_300ms_early_delay_2_tone_Lab_2,3012,235,EXP8c_maintaskTrials_2_s_rv
pass,6345b7f49677d36bd07c5a10,EXP8c_JF,0,12e7bbe9edfe05a20e9793e4795387b34d2e08054279563b28ec37e80219e412,7999.583134889603,False,keypress,EXP8c_testRsp_rv,227,[],choice-response,Lap,6382505f1517c76bb9b79768,2022-11-26 12:43:59-05:00,single_300ms_ontime_delay_2_tone_Lab_5,3368,236,EXP8c_maintaskTrials_2_l_rv
pass,6345b7f49677d36bd07c5a10,EXP8c_JF,0,12e7bbe9edfe05a20e9793e4795387b34d2e08054279563b28ec37e80219e412,7999.583134889603,False,keypress,EXP8c_testRsp_rv,517,[],choice-response,Lap,6382505f1517c76bb9b79768,2022-11-26 12:43:59-05:00,single_300ms_ontime_delay_2_tone_Lab_8,3714,237,EXP8c_maintaskTrials_2_l_rv
pass,6345b7f49677d36bd07c5a10,EXP8c_JF,0,12e7bbe9edfe05a20e9793e4795387b34d2e08054279563b28ec37e80219e412,7999.583134889603,False,keypress,EXP8c_testRsp_rv,27880,[],choice-response,Lap,6382505f1517c76bb9b79768,2022-11-26 12:43:59-05:00,single_300ms_ontime_delay_2_tone_Lab_7,31051,238,EXP8c_maintaskTrials_2_l_rv
pass,6345b7f49677d36bd07c5a10,EXP8c_JF,0,12e7bbe9edfe05a20e9793e4795387b34d2e08054279563b28ec37e80219e412,7999.583134889603,True,keypress,bird_catchRsp,766,['Bird singing'],choice-response,Bird singing,6382505f1517c76bb9b79768,2022-11-26 12:43:59-05:00,songbird,3559,239,Catch_trials
pass,6345b7f49677d36bd07c5a10,EXP8c_JF,0,12e7bbe9edfe05a20e9793e4795387b34d2e08054279563b28ec37e80219e412,7999.583134889603,False,keypress,EXP8c_testRsp_rv,29,[],choice-response,Lap,6382505f1517c76bb9b79768,2022-11-26 12:43:59-05:00,single_300ms_late_delay_2_tone_Lab_3,3226,240,EXP8c_maintaskTrials_2_s_rv
pass,6345b7f49677d36bd07c5a10,EXP8c_JF,0,12e7bbe9edfe05a20e9793e4795387b34d2e08054279563b28ec37e80219e412,7999.583134889603,False,keypress,EXP8c_testRsp_rv,1709,[],choice-response,Lap,6382505f1517c76bb9b79768,2022-11-26 12:43:59-05:00,single_300ms_late_delay_2_tone_Lab_4,4925,241,EXP8c_maintaskTrials_2_s_rv
pass,6345b7f49677d36bd07c5a10,EXP8c_JF,0,12e7bbe9edfe05a20e9793e4795387b34d2e08054279563b28ec37e80219e412,7999.583134889603,False,keypress,EXP8c_testRsp_rv,134,[],choice-response,Lap,6382505f1517c76bb9b79768,2022-11-26 12:43:59-05:00,single_300ms_ontime_delay_2_tone_Lab_1,3204,242,EXP8c_maintaskTrials_2_s_rv
pass,6345b7f49677d36bd07c5a10,EXP8c_JF,0,12e7bbe9edfe05a20e9793e4795387b34d2e08054279563b28ec37e80219e412,7999.583134889603,False,keypress,EXP8c_testRsp_rv,6,[],choice-response,Lap,6382505f1517c76bb9b79768,2022-11-26 12:43:59-05:00,single_300ms_late_delay_2_tone_Lab_2,3167,243,EXP8c_maintaskTrials_2_s_rv
pass,6345b7f49677d36bd07c5a10,EXP8c_JF,0,12e7bbe9edfe05a20e9793e4795387b34d2e08054279563b28ec37e80219e412,7999.583134889603,False,keypress,EXP8c_testRsp_rv,18,[],choice-response,Lap,6382505f1517c76bb9b79768,2022-11-26 12:43:59-05:00,single_300ms_ontime_delay_2_tone_Lab_3,3098,244,EXP8c_maintaskTrials_2_s_rv
pass,6345b7f49677d36bd07c5a10,EXP8c_JF,0,12e7bbe9edfe05a20e9793e4795387b34d2e08054279563b28ec37e80219e412,7999.583134889603,False,keypress,EXP8c_testRsp_rv,94,[],choice-response,Lap,6382505f1517c76bb9b79768,2022-11-26 12:43:59-05:00,single_300ms_early_delay_2_tone_Lab_8,3188,245,EXP8c_maintaskTrials_2_l_rv
pass,6345b7f49677d36bd07c5a10,EXP8c_JF,0,12e7bbe9edfe05a20e9793e4795387b34d2e08054279563b28ec37e80219e412,7999.583134889603,False,keypress,EXP8c_testRsp_rv,1368,[],choice-response,Lap,6382505f1517c76bb9b79768,2022-11-26 12:43:59-05:00,single_300ms_late_delay_2_tone_Lab_8,4641,246,EXP8c_maintaskTrials_2_l_rv
pass,6345b7f49677d36bd07c5a10,EXP8c_JF,0,12e7bbe9edfe05a20e9793e4795387b34d2e08054279563b28ec37e80219e412,7999.583134889603,False,keypress,EXP8c_testRsp_rv,103,[],choice-response,Lap,6382505f1517c76bb9b79768,2022-11-26 12:43:59-05:00,single_300ms_ontime_delay_2_tone_Lab_2,3130,247,EXP8c_maintaskTrials_2_s_rv
pass,6345b7f49677d36bd07c5a10,EXP8c_JF,0,12e7bbe9edfe05a20e9793e4795387b34d2e08054279563b28ec37e80219e412,7999.583134889603,False,keypress,EXP8c_testRsp_rv,836,[],choice-response,Lap,6382505f1517c76bb9b79768,2022-11-26 12:43:59-05:00,single_300ms_late_delay_2_tone_Lab_7,4108,248,EXP8c_maintaskTrials_2_l_rv
pass,6345b7f49677d36bd07c5a10,EXP8c_JF,0,12e7bbe9edfe05a20e9793e4795387b34d2e08054279563b28ec37e80219e412,7999.583134889603,False,keypress,EXP8c_testRsp_rv,60,[],choice-response,Lap,6382505f1517c76bb9b79768,2022-11-26 12:43:59-05:00,single_300ms_early_delay_2_tone_Lab_5,3096,249,EXP8c_maintaskTrials_2_l_rv
pass,6345b7f49677d36bd07c5a10,EXP8c_JF,0,12e7bbe9edfe05a20e9793e4795387b34d2e08054279563b28ec37e80219e412,7999.583134889603,False,keypress,EXP8c_testRsp_rv,193,[],choice-response,Lap,6382505f1517c76bb9b79768,2022-11-26 12:43:59-05:00,single_300ms_late_delay_2_tone_Lab_5,3403,250,EXP8c_maintaskTrials_2_l_rv
pass,6345b7f49677d36bd07c5a10,EXP8c_JF,0,12e7bbe9edfe05a20e9793e4795387b34d2e08054279563b28ec37e80219e412,7999.583134889603,True,keypress,cat_catchRsp,1330,['Cat meowing'],choice-response,Cat meowing,6382505f1517c76bb9b79768,2022-11-26 12:43:59-05:00,cat_meowing,4119,251,Catch_trials
pass,6345b7f49677d36bd07c5a10,EXP8c_JF,0,12e7bbe9edfe05a20e9793e4795387b34d2e08054279563b28ec37e80219e412,7999.583134889603,False,keypress,EXP8c_testRsp_rv,66,[],choice-response,Lap,6382505f1517c76bb9b79768,2022-11-26 12:43:59-05:00,single_300ms_ontime_delay_2_tone_Lab_6,3218,252,EXP8c_maintaskTrials_2_l_rv
pass,6345b7f49677d36bd07c5a10,EXP8c_JF,0,12e7bbe9edfe05a20e9793e4795387b34d2e08054279563b28ec37e80219e412,7999.583134889603,False,keypress,EXP8c_testRsp_rv,387,[],choice-response,Lap,6382505f1517c76bb9b79768,2022-11-26 12:43:59-05:00,single_300ms_ontime_delay_2_tone_Lab_7,3836,253,EXP8c_maintaskTrials_2_l_rv
pass,6345b7f49677d36bd07c5a10,EXP8c_JF,0,12e7bbe9edfe05a20e9793e4795387b34d2e08054279563b28ec37e80219e412,7999.583134889603,False,keypress,EXP8c_testRsp_rv,113,[],choice-response,Lap,6382505f1517c76bb9b79768,2022-11-26 12:43:59-05:00,single_300ms_late_delay_2_tone_Lab_8,3375,254,EXP8c_maintaskTrials_2_l_rv
pass,6345b7f49677d36bd07c5a10,EXP8c_JF,0,12e7bbe9edfe05a20e9793e4795387b34d2e08054279563b28ec37e80219e412,7999.583134889603,False,keypress,EXP8c_testRsp_rv,86,[],choice-response,Lap,6382505f1517c76bb9b79768,2022-11-26 12:43:59-05:00,single_300ms_ontime_delay_2_tone_Lab_4,3193,255,EXP8c_maintaskTrials_2_s_rv
pass,6345b7f49677d36bd07c5a10,EXP8c_JF,0,12e7bbe9edfe05a20e9793e4795387b34d2e08054279563b28ec37e80219e412,7999.583134889603,False,keypress,EXP8c_testRsp_rv,314,[],choice-response,Lap,6382505f1517c76bb9b79768,2022-11-26 12:43:59-05:00,single_300ms_early_delay_2_tone_Lab_2,3308,256,EXP8c_maintaskTrials_2_s_rv
pass,6345b7f49677d36bd07c5a10,EXP8c_JF,0,12e7bbe9edfe05a20e9793e4795387b34d2e08054279563b28ec37e80219e412,7999.583134889603,False,keypress,EXP8c_testRsp_rv,340,[],choice-response,Lap,6382505f1517c76bb9b79768,2022-11-26 12:43:59-05:00,single_300ms_early_delay_2_tone_Lab_4,3339,257,EXP8c_maintaskTrials_2_s_rv
pass,6345b7f49677d36bd07c5a10,EXP8c_JF,0,12e7bbe9edfe05a20e9793e4795387b34d2e08054279563b28ec37e80219e412,7999.583134889603,False,keypress,EXP8c_testRsp_rv,356,[],choice-response,Lap,6382505f1517c76bb9b79768,2022-11-26 12:43:59-05:00,single_300ms_early_delay_2_tone_Lab_8,3463,258,EXP8c_maintaskTrials_2_l_rv
pass,6345b7f49677d36bd07c5a10,EXP8c_JF,0,12e7bbe9edfe05a20e9793e4795387b34d2e08054279563b28ec37e80219e412,7999.583134889603,False,keypress,EXP8c_testRsp_rv,969,[],choice-response,Lab,6382505f1517c76bb9b79768,2022-11-26 12:43:59-05:00,single_300ms_late_delay_2_tone_Lab_6,4205,259,EXP8c_maintaskTrials_2_l_rv
pass,6345b7f49677d36bd07c5a10,EXP8c_JF,0,12e7bbe9edfe05a20e9793e4795387b34d2e08054279563b28ec37e80219e412,7999.583134889603,False,keypress,EXP8c_testRsp_rv,604,[],choice-response,Lap,6382505f1517c76bb9b79768,2022-11-26 12:43:59-05:00,single_300ms_ontime_delay_2_tone_Lab_1,3652,260,EXP8c_maintaskTrials_2_s_rv
pass,6345b7f49677d36bd07c5a10,EXP8c_JF,0,12e7bbe9edfe05a20e9793e4795387b34d2e08054279563b28ec37e80219e412,7999.583134889603,False,keypress,EXP8c_testRsp_rv,354,[],choice-response,Lap,6382505f1517c76bb9b79768,2022-11-26 12:43:59-05:00,single_300ms_ontime_delay_2_tone_Lab_2,3412,261,EXP8c_maintaskTrials_2_s_rv
pass,6345b7f49677d36bd07c5a10,EXP8c_JF,0,12e7bbe9edfe05a20e9793e4795387b34d2e08054279563b28ec37e80219e412,7999.583134889603,False,keypress,EXP8c_testRsp_rv,625,[],choice-response,Lap,6382505f1517c76bb9b79768,2022-11-26 12:43:59-05:00,single_300ms_early_delay_2_tone_Lab_5,3661,262,EXP8c_maintaskTrials_2_l_rv
pass,6345b7f49677d36bd07c5a10,EXP8c_JF,0,12e7bbe9edfe05a20e9793e4795387b34d2e08054279563b28ec37e80219e412,7999.583134889603,False,keypress,EXP8c_testRsp_rv,512,[],choice-response,Lap,6382505f1517c76bb9b79768,2022-11-26 12:43:59-05:00,single_300ms_ontime_delay_2_tone_Lab_3,3606,263,EXP8c_maintaskTrials_2_s_rv
pass,6345b7f49677d36bd07c5a10,EXP8c_JF,0,12e7bbe9edfe05a20e9793e4795387b34d2e08054279563b28ec37e80219e412,7999.583134889603,True,keypress,cat_catchRsp,13039,['Cat meowing'],choice-response,Cat meowing,6382505f1517c76bb9b79768,2022-11-26 12:43:59-05:00,cat_meowing,15750,264,Catch_trials
pass,6345b7f49677d36bd07c5a10,EXP8c_JF,0,12e7bbe9edfe05a20e9793e4795387b34d2e08054279563b28ec37e80219e412,7999.583134889603,False,keypress,EXP8c_testRsp_rv,798,[],choice-response,Lap,6382505f1517c76bb9b79768,2022-11-26 12:43:59-05:00,single_300ms_late_delay_2_tone_Lab_4,3999,265,EXP8c_maintaskTrials_2_s_rv
pass,6345b7f49677d36bd07c5a10,EXP8c_JF,0,12e7bbe9edfe05a20e9793e4795387b34d2e08054279563b28ec37e80219e412,7999.583134889603,False,keypress,EXP8c_testRsp_rv,255,[],choice-response,Lap,6382505f1517c76bb9b79768,2022-11-26 12:43:59-05:00,single_300ms_ontime_delay_2_tone_Lab_5,3432,266,EXP8c_maintaskTrials_2_l_rv
pass,6345b7f49677d36bd07c5a10,EXP8c_JF,0,12e7bbe9edfe05a20e9793e4795387b34d2e08054279563b28ec37e80219e412,7999.583134889603,False,keypress,EXP8c_testRsp_rv,889,[],choice-response,Lap,6382505f1517c76bb9b79768,2022-11-26 12:43:59-05:00,single_300ms_late_delay_2_tone_Lab_5,4085,267,EXP8c_maintaskTrials_2_l_rv
pass,6345b7f49677d36bd07c5a10,EXP8c_JF,0,12e7bbe9edfe05a20e9793e4795387b34d2e08054279563b28ec37e80219e412,7999.583134889603,False,keypress,EXP8c_testRsp_rv,816,[],choice-response,Lap,6382505f1517c76bb9b79768,2022-11-26 12:43:59-05:00,single_300ms_late_delay_2_tone_Lab_3,4004,268,EXP8c_maintaskTrials_2_s_rv
pass,6345b7f49677d36bd07c5a10,EXP8c_JF,0,12e7bbe9edfe05a20e9793e4795387b34d2e08054279563b28ec37e80219e412,7999.583134889603,False,keypress,EXP8c_testRsp_rv,593,[],choice-response,Lap,6382505f1517c76bb9b79768,2022-11-26 12:43:59-05:00,single_300ms_early_delay_2_tone_Lab_3,3588,269,EXP8c_maintaskTrials_2_s_rv
pass,6345b7f49677d36bd07c5a10,EXP8c_JF,0,12e7bbe9edfe05a20e9793e4795387b34d2e08054279563b28ec37e80219e412,7999.583134889603,False,keypress,EXP8c_testRsp_rv,381,[],choice-response,Lap,6382505f1517c76bb9b79768,2022-11-26 12:43:59-05:00,single_300ms_late_delay_2_tone_Lab_1,3509,270,EXP8c_maintaskTrials_2_s_rv
pass,6345b7f49677d36bd07c5a10,EXP8c_JF,0,12e7bbe9edfe05a20e9793e4795387b34d2e08054279563b28ec37e80219e412,7999.583134889603,False,keypress,EXP8c_testRsp_rv,1072,[],choice-response,Lab,6382505f1517c76bb9b79768,2022-11-26 12:43:59-05:00,single_300ms_early_delay_2_tone_Lab_6,4129,271,EXP8c_maintaskTrials_2_l_rv
pass,6345b7f49677d36bd07c5a10,EXP8c_JF,0,12e7bbe9edfe05a20e9793e4795387b34d2e08054279563b28ec37e80219e412,7999.583134889603,False,keypress,EXP8c_testRsp_rv,3742,[],choice-response,Lap,6382505f1517c76bb9b79768,2022-11-26 12:43:59-05:00,single_300ms_ontime_delay_2_tone_Lab_8,6908,272,EXP8c_maintaskTrials_2_l_rv
pass,6345b7f49677d36bd07c5a10,EXP8c_JF,0,12e7bbe9edfe05a20e9793e4795387b34d2e08054279563b28ec37e80219e412,7999.583134889603,False,keypress,EXP8c_testRsp_rv,318,[],choice-response,Lap,6382505f1517c76bb9b79768,2022-11-26 12:43:59-05:00,single_300ms_early_delay_2_tone_Lab_7,3376,273,EXP8c_maintaskTrials_2_l_rv
pass,6345b7f49677d36bd07c5a10,EXP8c_JF,0,12e7bbe9edfe05a20e9793e4795387b34d2e08054279563b28ec37e80219e412,7999.583134889603,False,keypress,EXP8c_testRsp_rv,104,[],choice-response,Lap,6382505f1517c76bb9b79768,2022-11-26 12:43:59-05:00,single_300ms_late_delay_2_tone_Lab_2,3271,274,EXP8c_maintaskTrials_2_s_rv
pass,6345b7f49677d36bd07c5a10,EXP8c_JF,0,12e7bbe9edfe05a20e9793e4795387b34d2e08054279563b28ec37e80219e412,7999.583134889603,False,keypress,EXP8c_testRsp_rv,304,[],choice-response,Lap,6382505f1517c76bb9b79768,2022-11-26 12:43:59-05:00,single_300ms_early_delay_2_tone_Lab_1,3233,275,EXP8c_maintaskTrials_2_s_rv
pass,6345b7f49677d36bd07c5a10,EXP8c_JF,0,12e7bbe9edfe05a20e9793e4795387b34d2e08054279563b28ec37e80219e412,7999.583134889603,True,keypress,bird_catchRsp,1816,['Bird singing'],choice-response,Bird singing,6382505f1517c76bb9b79768,2022-11-26 12:43:59-05:00,songbird,4511,276,Catch_trials
pass,6345b7f49677d36bd07c5a10,EXP8c_JF,0,12e7bbe9edfe05a20e9793e4795387b34d2e08054279563b28ec37e80219e412,7999.583134889603,False,keypress,EXP8c_testRsp_rv,763,[],choice-response,Lab,6382505f1517c76bb9b79768,2022-11-26 12:43:59-05:00,single_300ms_ontime_delay_2_tone_Lab_6,3906,277,EXP8c_maintaskTrials_2_l_rv
pass,6345b7f49677d36bd07c5a10,EXP8c_JF,0,12e7bbe9edfe05a20e9793e4795387b34d2e08054279563b28ec37e80219e412,7999.583134889603,False,keypress,EXP8c_testRsp_rv,427,[],choice-response,Lab,6382505f1517c76bb9b79768,2022-11-26 12:43:59-05:00,single_300ms_late_delay_2_tone_Lab_7,3703,278,EXP8c_maintaskTrials_2_l_rv
pass,6345b7f49677d36bd07c5a10,EXP8c_JF,0,12e7bbe9edfe05a20e9793e4795387b34d2e08054279563b28ec37e80219e412,7999.583134889603,False,keypress,EXP8c_testRsp_rv,207,[],choice-response,Lap,6382505f1517c76bb9b79768,2022-11-26 12:43:59-05:00,single_300ms_late_delay_2_tone_Lab_1,3356,279,EXP8c_maintaskTrials_2_s_rv
pass,6345b7f49677d36bd07c5a10,EXP8c_JF,0,12e7bbe9edfe05a20e9793e4795387b34d2e08054279563b28ec37e80219e412,7999.583134889603,False,keypress,EXP8c_testRsp_rv,665,[],choice-response,Lap,6382505f1517c76bb9b79768,2022-11-26 12:43:59-05:00,single_300ms_late_delay_2_tone_Lab_3,3845,280,EXP8c_maintaskTrials_2_s_rv
pass,6345b7f49677d36bd07c5a10,EXP8c_JF,0,12e7bbe9edfe05a20e9793e4795387b34d2e08054279563b28ec37e80219e412,7999.583134889603,False,keypress,EXP8c_testRsp_rv,1153,[],choice-response,Lab,6382505f1517c76bb9b79768,2022-11-26 12:43:59-05:00,single_300ms_early_delay_2_tone_Lab_5,4210,281,EXP8c_maintaskTrials_2_l_rv
pass,6345b7f49677d36bd07c5a10,EXP8c_JF,0,12e7bbe9edfe05a20e9793e4795387b34d2e08054279563b28ec37e80219e412,7999.583134889603,False,keypress,EXP8c_testRsp_rv,441,[],choice-response,Lab,6382505f1517c76bb9b79768,2022-11-26 12:43:59-05:00,single_300ms_late_delay_2_tone_Lab_7,3712,282,EXP8c_maintaskTrials_2_l_rv
pass,6345b7f49677d36bd07c5a10,EXP8c_JF,0,12e7bbe9edfe05a20e9793e4795387b34d2e08054279563b28ec37e80219e412,7999.583134889603,False,keypress,EXP8c_testRsp_rv,448,[],choice-response,Lab,6382505f1517c76bb9b79768,2022-11-26 12:43:59-05:00,single_300ms_ontime_delay_2_tone_Lab_5,3572,283,EXP8c_maintaskTrials_2_l_rv
pass,6345b7f49677d36bd07c5a10,EXP8c_JF,0,12e7bbe9edfe05a20e9793e4795387b34d2e08054279563b28ec37e80219e412,7999.583134889603,False,keypress,EXP8c_testRsp_rv,246,[],choice-response,Lab,6382505f1517c76bb9b79768,2022-11-26 12:43:59-05:00,single_300ms_late_delay_2_tone_Lab_4,3428,284,EXP8c_maintaskTrials_2_s_rv
pass,6345b7f49677d36bd07c5a10,EXP8c_JF,0,12e7bbe9edfe05a20e9793e4795387b34d2e08054279563b28ec37e80219e412,7999.583134889603,False,keypress,EXP8c_testRsp_rv,512,[],choice-response,Lab,6382505f1517c76bb9b79768,2022-11-26 12:43:59-05:00,single_300ms_early_delay_2_tone_Lab_6,3578,285,EXP8c_maintaskTrials_2_l_rv
pass,6345b7f49677d36bd07c5a10,EXP8c_JF,0,12e7bbe9edfe05a20e9793e4795387b34d2e08054279563b28ec37e80219e412,7999.583134889603,False,keypress,EXP8c_testRsp_rv,140,[],choice-response,Lab,6382505f1517c76bb9b79768,2022-11-26 12:43:59-05:00,single_300ms_ontime_delay_2_tone_Lab_6,3257,286,EXP8c_maintaskTrials_2_l_rv
pass,6345b7f49677d36bd07c5a10,EXP8c_JF,0,12e7bbe9edfe05a20e9793e4795387b34d2e08054279563b28ec37e80219e412,7999.583134889603,False,keypress,EXP8c_testRsp_rv,523,[],choice-response,Lap,6382505f1517c76bb9b79768,2022-11-26 12:43:59-05:00,single_300ms_early_delay_2_tone_Lab_3,3494,287,EXP8c_maintaskTrials_2_s_rv
pass,6345b7f49677d36bd07c5a10,EXP8c_JF,0,12e7bbe9edfe05a20e9793e4795387b34d2e08054279563b28ec37e80219e412,7999.583134889603,True,keypress,cat_catchRsp,856,['Cat meowing'],choice-response,Cat meowing,6382505f1517c76bb9b79768,2022-11-26 12:43:59-05:00,cat_meowing,3617,288,Catch_trials
pass,6345b7f49677d36bd07c5a10,EXP8c_JF,0,12e7bbe9edfe05a20e9793e4795387b34d2e08054279563b28ec37e80219e412,7999.583134889603,False,keypress,EXP8c_testRsp_rv,215,[],choice-response,Lab,6382505f1517c76bb9b79768,2022-11-26 12:43:59-05:00,single_300ms_late_delay_2_tone_Lab_6,3468,289,EXP8c_maintaskTrials_2_l_rv
pass,6345b7f49677d36bd07c5a10,EXP8c_JF,0,12e7bbe9edfe05a20e9793e4795387b34d2e08054279563b28ec37e80219e412,7999.583134889603,False,keypress,EXP8c_testRsp_rv,956,[],choice-response,Lap,6382505f1517c76bb9b79768,2022-11-26 12:43:59-05:00,single_300ms_early_delay_2_tone_Lab_2,3940,290,EXP8c_maintaskTrials_2_s_rv
pass,6345b7f49677d36bd07c5a10,EXP8c_JF,0,12e7bbe9edfe05a20e9793e4795387b34d2e08054279563b28ec37e80219e412,7999.583134889603,False,keypress,EXP8c_testRsp_rv,148,[],choice-response,Lab,6382505f1517c76bb9b79768,2022-11-26 12:43:59-05:00,single_300ms_ontime_delay_2_tone_Lab_8,3339,291,EXP8c_maintaskTrials_2_l_rv
pass,6345b7f49677d36bd07c5a10,EXP8c_JF,0,12e7bbe9edfe05a20e9793e4795387b34d2e08054279563b28ec37e80219e412,7999.583134889603,False,keypress,EXP8c_testRsp_rv,465,[],choice-response,Lap,6382505f1517c76bb9b79768,2022-11-26 12:43:59-05:00,single_300ms_early_delay_2_tone_Lab_4,3474,292,EXP8c_maintaskTrials_2_s_rv
pass,6345b7f49677d36bd07c5a10,EXP8c_JF,0,12e7bbe9edfe05a20e9793e4795387b34d2e08054279563b28ec37e80219e412,7999.583134889603,False,keypress,EXP8c_testRsp_rv,812,[],choice-response,Lap,6382505f1517c76bb9b79768,2022-11-26 12:43:59-05:00,single_300ms_ontime_delay_2_tone_Lab_3,3886,293,EXP8c_maintaskTrials_2_s_rv
pass,6345b7f49677d36bd07c5a10,EXP8c_JF,0,12e7bbe9edfe05a20e9793e4795387b34d2e08054279563b28ec37e80219e412,7999.583134889603,False,keypress,EXP8c_testRsp_rv,317,[],choice-response,Lab,6382505f1517c76bb9b79768,2022-11-26 12:43:59-05:00,single_300ms_late_delay_2_tone_Lab_8,3596,294,EXP8c_maintaskTrials_2_l_rv
pass,6345b7f49677d36bd07c5a10,EXP8c_JF,0,12e7bbe9edfe05a20e9793e4795387b34d2e08054279563b28ec37e80219e412,7999.583134889603,False,keypress,EXP8c_testRsp_rv,364,[],choice-response,Lap,6382505f1517c76bb9b79768,2022-11-26 12:43:59-05:00,single_300ms_ontime_delay_2_tone_Lab_2,3425,295,EXP8c_maintaskTrials_2_s_rv
pass,6345b7f49677d36bd07c5a10,EXP8c_JF,0,12e7bbe9edfe05a20e9793e4795387b34d2e08054279563b28ec37e80219e412,7999.583134889603,False,keypress,EXP8c_testRsp_rv,96,[],choice-response,Lab,6382505f1517c76bb9b79768,2022-11-26 12:43:59-05:00,single_300ms_early_delay_2_tone_Lab_8,3195,296,EXP8c_maintaskTrials_2_l_rv
pass,6345b7f49677d36bd07c5a10,EXP8c_JF,0,12e7bbe9edfe05a20e9793e4795387b34d2e08054279563b28ec37e80219e412,7999.583134889603,False,keypress,EXP8c_testRsp_rv,815,[],choice-response,Lab,6382505f1517c76bb9b79768,2022-11-26 12:43:59-05:00,single_300ms_early_delay_2_tone_Lab_7,3892,297,EXP8c_maintaskTrials_2_l_rv
pass,6345b7f49677d36bd07c5a10,EXP8c_JF,0,12e7bbe9edfe05a20e9793e4795387b34d2e08054279563b28ec37e80219e412,7999.583134889603,False,keypress,EXP8c_testRsp_rv,173,[],choice-response,Lab,6382505f1517c76bb9b79768,2022-11-26 12:43:59-05:00,single_300ms_ontime_delay_2_tone_Lab_1,3238,298,EXP8c_maintaskTrials_2_s_rv
pass,6345b7f49677d36bd07c5a10,EXP8c_JF,0,12e7bbe9edfe05a20e9793e4795387b34d2e08054279563b28ec37e80219e412,7999.583134889603,False,keypress,EXP8c_testRsp_rv,248,[],choice-response,Lab,6382505f1517c76bb9b79768,2022-11-26 12:43:59-05:00,single_300ms_ontime_delay_2_tone_Lab_4,3379,299,EXP8c_maintaskTrials_2_s_rv
pass,6345b7f49677d36bd07c5a10,EXP8c_JF,0,12e7bbe9edfe05a20e9793e4795387b34d2e08054279563b28ec37e80219e412,7999.583134889603,True,keypress,bird_catchRsp,739,['Bird singing'],choice-response,Bird singing,6382505f1517c76bb9b79768,2022-11-26 12:43:59-05:00,songbird,3463,300,Catch_trials
pass,6345b7f49677d36bd07c5a10,EXP8c_JF,0,12e7bbe9edfe05a20e9793e4795387b34d2e08054279563b28ec37e80219e412,7999.583134889603,False,keypress,EXP8c_testRsp_rv,1697,[],choice-response,Lap,6382505f1517c76bb9b79768,2022-11-26 12:43:59-05:00,single_300ms_early_delay_2_tone_Lab_1,4637,301,EXP8c_maintaskTrials_2_s_rv
pass,6345b7f49677d36bd07c5a10,EXP8c_JF,0,12e7bbe9edfe05a20e9793e4795387b34d2e08054279563b28ec37e80219e412,7999.583134889603,False,keypress,EXP8c_testRsp_rv,1215,[],choice-response,Lab,6382505f1517c76bb9b79768,2022-11-26 12:43:59-05:00,single_300ms_late_delay_2_tone_Lab_5,4431,302,EXP8c_maintaskTrials_2_l_rv
pass,6345b7f49677d36bd07c5a10,EXP8c_JF,0,12e7bbe9edfe05a20e9793e4795387b34d2e08054279563b28ec37e80219e412,7999.583134889603,False,keypress,EXP8c_testRsp_rv,378,[],choice-response,Lab,6382505f1517c76bb9b79768,2022-11-26 12:43:59-05:00,single_300ms_ontime_delay_2_tone_Lab_7,3543,303,EXP8c_maintaskTrials_2_l_rv
pass,6345b7f49677d36bd07c5a10,EXP8c_JF,0,12e7bbe9edfe05a20e9793e4795387b34d2e08054279563b28ec37e80219e412,7999.583134889603,False,keypress,EXP8c_testRsp_rv,293,[],choice-response,Lap,6382505f1517c76bb9b79768,2022-11-26 12:43:59-05:00,single_300ms_late_delay_2_tone_Lab_2,3442,304,EXP8c_maintaskTrials_2_s_rv
pass,6345b7f49677d36bd07c5a10,EXP8c_JF,0,12e7bbe9edfe05a20e9793e4795387b34d2e08054279563b28ec37e80219e412,7999.583134889603,False,keypress,EXP8c_testRsp_rv,312,[],choice-response,Lab,6382505f1517c76bb9b79768,2022-11-26 12:43:59-05:00,single_300ms_late_delay_2_tone_Lab_6,3571,305,EXP8c_maintaskTrials_2_l_rv
pass,6345b7f49677d36bd07c5a10,EXP8c_JF,0,12e7bbe9edfe05a20e9793e4795387b34d2e08054279563b28ec37e80219e412,7999.583134889603,False,keypress,EXP8c_testRsp_rv,391,[],choice-response,Lap,6382505f1517c76bb9b79768,2022-11-26 12:43:59-05:00,single_300ms_early_delay_2_tone_Lab_1,3318,306,EXP8c_maintaskTrials_2_s_rv
pass,6345b7f49677d36bd07c5a10,EXP8c_JF,0,12e7bbe9edfe05a20e9793e4795387b34d2e08054279563b28ec37e80219e412,7999.583134889603,False,keypress,EXP8c_testRsp_rv,1184,[],choice-response,Lap,6382505f1517c76bb9b79768,2022-11-26 12:43:59-05:00,single_300ms_late_delay_2_tone_Lab_4,4395,307,EXP8c_maintaskTrials_2_s_rv
pass,6345b7f49677d36bd07c5a10,EXP8c_JF,0,12e7bbe9edfe05a20e9793e4795387b34d2e08054279563b28ec37e80219e412,7999.583134889603,False,keypress,EXP8c_testRsp_rv,443,[],choice-response,Lab,6382505f1517c76bb9b79768,2022-11-26 12:43:59-05:00,single_300ms_ontime_delay_2_tone_Lab_6,3591,308,EXP8c_maintaskTrials_2_l_rv
pass,6345b7f49677d36bd07c5a10,EXP8c_JF,0,12e7bbe9edfe05a20e9793e4795387b34d2e08054279563b28ec37e80219e412,7999.583134889603,False,keypress,EXP8c_testRsp_rv,973,[],choice-response,Lap,6382505f1517c76bb9b79768,2022-11-26 12:43:59-05:00,single_300ms_early_delay_2_tone_Lab_2,3955,309,EXP8c_maintaskTrials_2_s_rv
pass,6345b7f49677d36bd07c5a10,EXP8c_JF,0,12e7bbe9edfe05a20e9793e4795387b34d2e08054279563b28ec37e80219e412,7999.583134889603,False,keypress,EXP8c_testRsp_rv,876,[],choice-response,Lap,6382505f1517c76bb9b79768,2022-11-26 12:43:59-05:00,single_300ms_ontime_delay_2_tone_Lab_2,3948,310,EXP8c_maintaskTrials_2_s_rv
pass,6345b7f49677d36bd07c5a10,EXP8c_JF,0,12e7bbe9edfe05a20e9793e4795387b34d2e08054279563b28ec37e80219e412,7999.583134889603,False,keypress,EXP8c_testRsp_rv,2258,[],choice-response,Lab,6382505f1517c76bb9b79768,2022-11-26 12:43:59-05:00,single_300ms_late_delay_2_tone_Lab_3,5445,311,EXP8c_maintaskTrials_2_s_rv
pass,6345b7f49677d36bd07c5a10,EXP8c_JF,0,12e7bbe9edfe05a20e9793e4795387b34d2e08054279563b28ec37e80219e412,7999.583134889603,True,keypress,cat_catchRsp,1121,['Cat meowing'],choice-response,Cat meowing,6382505f1517c76bb9b79768,2022-11-26 12:43:59-05:00,cat_meowing,3830,312,Catch_trials
pass,6345b7f49677d36bd07c5a10,EXP8c_JF,0,12e7bbe9edfe05a20e9793e4795387b34d2e08054279563b28ec37e80219e412,7999.583134889603,False,keypress,EXP8c_testRsp_rv,725,[],choice-response,Lap,6382505f1517c76bb9b79768,2022-11-26 12:43:59-05:00,single_300ms_ontime_delay_2_tone_Lab_1,3773,313,EXP8c_maintaskTrials_2_s_rv
pass,6345b7f49677d36bd07c5a10,EXP8c_JF,0,12e7bbe9edfe05a20e9793e4795387b34d2e08054279563b28ec37e80219e412,7999.583134889603,False,keypress,EXP8c_testRsp_rv,2712,[],choice-response,Lap,6382505f1517c76bb9b79768,2022-11-26 12:43:59-05:00,single_300ms_early_delay_2_tone_Lab_3,5703,314,EXP8c_maintaskTrials_2_s_rv
pass,6345b7f49677d36bd07c5a10,EXP8c_JF,0,12e7bbe9edfe05a20e9793e4795387b34d2e08054279563b28ec37e80219e412,7999.583134889603,False,keypress,EXP8c_testRsp_rv,174,[],choice-response,Lab,6382505f1517c76bb9b79768,2022-11-26 12:43:59-05:00,single_300ms_ontime_delay_2_tone_Lab_7,3336,315,EXP8c_maintaskTrials_2_l_rv
pass,6345b7f49677d36bd07c5a10,EXP8c_JF,0,12e7bbe9edfe05a20e9793e4795387b34d2e08054279563b28ec37e80219e412,7999.583134889603,False,keypress,EXP8c_testRsp_rv,855,[],choice-response,Lab,6382505f1517c76bb9b79768,2022-11-26 12:43:59-05:00,single_300ms_ontime_delay_2_tone_Lab_4,3960,316,EXP8c_maintaskTrials_2_s_rv
pass,6345b7f49677d36bd07c5a10,EXP8c_JF,0,12e7bbe9edfe05a20e9793e4795387b34d2e08054279563b28ec37e80219e412,7999.583134889603,False,keypress,EXP8c_testRsp_rv,259,[],choice-response,Lap,6382505f1517c76bb9b79768,2022-11-26 12:43:59-05:00,single_300ms_ontime_delay_2_tone_Lab_8,3439,317,EXP8c_maintaskTrials_2_l_rv
pass,6345b7f49677d36bd07c5a10,EXP8c_JF,0,12e7bbe9edfe05a20e9793e4795387b34d2e08054279563b28ec37e80219e412,7999.583134889603,False,keypress,EXP8c_testRsp_rv,651,[],choice-response,Lap,6382505f1517c76bb9b79768,2022-11-26 12:43:59-05:00,single_300ms_late_delay_2_tone_Lab_2,3819,318,EXP8c_maintaskTrials_2_s_rv
pass,6345b7f49677d36bd07c5a10,EXP8c_JF,0,12e7bbe9edfe05a20e9793e4795387b34d2e08054279563b28ec37e80219e412,7999.583134889603,False,keypress,EXP8c_testRsp_rv,442,[],choice-response,Lab,6382505f1517c76bb9b79768,2022-11-26 12:43:59-05:00,single_300ms_early_delay_2_tone_Lab_5,3465,319,EXP8c_maintaskTrials_2_l_rv
pass,6345b7f49677d36bd07c5a10,EXP8c_JF,0,12e7bbe9edfe05a20e9793e4795387b34d2e08054279563b28ec37e80219e412,7999.583134889603,False,keypress,EXP8c_testRsp_rv,258,[],choice-response,Lab,6382505f1517c76bb9b79768,2022-11-26 12:43:59-05:00,single_300ms_ontime_delay_2_tone_Lab_5,3402,320,EXP8c_maintaskTrials_2_l_rv
pass,6345b7f49677d36bd07c5a10,EXP8c_JF,0,12e7bbe9edfe05a20e9793e4795387b34d2e08054279563b28ec37e80219e412,7999.583134889603,False,keypress,EXP8c_testRsp_rv,197,[],choice-response,Lab,6382505f1517c76bb9b79768,2022-11-26 12:43:59-05:00,single_300ms_early_delay_2_tone_Lab_7,3288,321,EXP8c_maintaskTrials_2_l_rv
pass,6345b7f49677d36bd07c5a10,EXP8c_JF,0,12e7bbe9edfe05a20e9793e4795387b34d2e08054279563b28ec37e80219e412,7999.583134889603,False,keypress,EXP8c_testRsp_rv,88,[],choice-response,Lab,6382505f1517c76bb9b79768,2022-11-26 12:43:59-05:00,single_300ms_late_delay_2_tone_Lab_7,3326,322,EXP8c_maintaskTrials_2_l_rv
pass,6345b7f49677d36bd07c5a10,EXP8c_JF,0,12e7bbe9edfe05a20e9793e4795387b34d2e08054279563b28ec37e80219e412,7999.583134889603,False,keypress,EXP8c_testRsp_rv,262,[],choice-response,Lap,6382505f1517c76bb9b79768,2022-11-26 12:43:59-05:00,single_300ms_late_delay_2_tone_Lab_1,3380,323,EXP8c_maintaskTrials_2_s_rv
pass,6345b7f49677d36bd07c5a10,EXP8c_JF,0,12e7bbe9edfe05a20e9793e4795387b34d2e08054279563b28ec37e80219e412,7999.583134889603,True,keypress,bird_catchRsp,683,['Bird singing'],choice-response,Bird singing,6382505f1517c76bb9b79768,2022-11-26 12:43:59-05:00,songbird,3402,324,Catch_trials
pass,6345b7f49677d36bd07c5a10,EXP8c_JF,0,12e7bbe9edfe05a20e9793e4795387b34d2e08054279563b28ec37e80219e412,7999.583134889603,False,keypress,EXP8c_testRsp_rv,94,[],choice-response,Lab,6382505f1517c76bb9b79768,2022-11-26 12:43:59-05:00,single_300ms_late_delay_2_tone_Lab_8,3344,325,EXP8c_maintaskTrials_2_l_rv
pass,6345b7f49677d36bd07c5a10,EXP8c_JF,0,12e7bbe9edfe05a20e9793e4795387b34d2e08054279563b28ec37e80219e412,7999.583134889603,False,keypress,EXP8c_testRsp_rv,193,[],choice-response,Lab,6382505f1517c76bb9b79768,2022-11-26 12:43:59-05:00,single_300ms_early_delay_2_tone_Lab_8,3312,326,EXP8c_maintaskTrials_2_l_rv
pass,6345b7f49677d36bd07c5a10,EXP8c_JF,0,12e7bbe9edfe05a20e9793e4795387b34d2e08054279563b28ec37e80219e412,7999.583134889603,False,keypress,EXP8c_testRsp_rv,405,[],choice-response,Lap,6382505f1517c76bb9b79768,2022-11-26 12:43:59-05:00,single_300ms_ontime_delay_2_tone_Lab_3,3467,327,EXP8c_maintaskTrials_2_s_rv
pass,6345b7f49677d36bd07c5a10,EXP8c_JF,0,12e7bbe9edfe05a20e9793e4795387b34d2e08054279563b28ec37e80219e412,7999.583134889603,False,keypress,EXP8c_testRsp_rv,311,[],choice-response,Lab,6382505f1517c76bb9b79768,2022-11-26 12:43:59-05:00,single_300ms_early_delay_2_tone_Lab_6,3358,328,EXP8c_maintaskTrials_2_l_rv
