branch_failpass,expt_id,group_id,network_error_repeat,participant_id,participation_duration,response_correct,response_mode,response_name,response_rt,response_target,response_type,response_value,session_id,session_start_time,stimuli_presented,trial_duration,trial_num,trial_template
pass,6345b7f49677d36bd07c5a10,EXP8c_JF,0,9077ab4ac2c6a1eaf3fb98f663c10d7b81a6cc9251094a2bb883f7723f6f0b08,2366.549044,FALSE,click,survey_noise,3587,[],choice-response,1,63855a7052dc2c8cc811b3a4,2022-11-28 20:03:44-05:00,logistics_noise,5308,1,logisticsQuestionnaire
pass,6345b7f49677d36bd07c5a10,EXP8c_JF,0,9077ab4ac2c6a1eaf3fb98f663c10d7b81a6cc9251094a2bb883f7723f6f0b08,2366.549044,FALSE,click,survey_headphone1,270776,[],choice-response,Yes,63855a7052dc2c8cc811b3a4,2022-11-28 20:03:44-05:00,logistic_headphone1,273245,2,logisticsQuestionnaire
pass,6345b7f49677d36bd07c5a10,EXP8c_JF,0,9077ab4ac2c6a1eaf3fb98f663c10d7b81a6cc9251094a2bb883f7723f6f0b08,2366.549044,FALSE,click,survey_headphone2,5225,[],choice-response,Wired Headphones,63855a7052dc2c8cc811b3a4,2022-11-28 20:03:44-05:00,logistic_headphone2,6444,3,logisticsQuestionnaire
pass,6345b7f49677d36bd07c5a10,EXP8c_JF,0,9077ab4ac2c6a1eaf3fb98f663c10d7b81a6cc9251094a2bb883f7723f6f0b08,2366.549044,TRUE,click,EXP8c_exampleRsp_l_F,12797,['Lab'],choice-response,Lab,63855a7052dc2c8cc811b3a4,2022-11-28 20:03:44-05:00,long_tone_8,16674,4,EXP8c_Pretestexample_l_rv
pass,6345b7f49677d36bd07c5a10,EXP8c_JF,0,9077ab4ac2c6a1eaf3fb98f663c10d7b81a6cc9251094a2bb883f7723f6f0b08,2366.549044,TRUE,keypress,EXP8c_exampleRsp_s_J,20696,['Lap'],choice-response,Lap,63855a7052dc2c8cc811b3a4,2022-11-28 20:03:44-05:00,short_tone_1,24691,5,EXP8c_Pretestexample_s_rv
pass,6345b7f49677d36bd07c5a10,EXP8c_JF,0,9077ab4ac2c6a1eaf3fb98f663c10d7b81a6cc9251094a2bb883f7723f6f0b08,2366.549044,FALSE,keypress,EXP8c_exampleRsp_s_J,6729,['Lap'],choice-response,Lab,63855a7052dc2c8cc811b3a4,2022-11-28 20:03:44-05:00,short_tone_1,10360,6,EXP8c_Pretestexample_s_rv
pass,6345b7f49677d36bd07c5a10,EXP8c_JF,0,9077ab4ac2c6a1eaf3fb98f663c10d7b81a6cc9251094a2bb883f7723f6f0b08,2366.549044,FALSE,keypress,EXP8c_exampleRsp_l_F,3674,['Lab'],choice-response,Lap,63855a7052dc2c8cc811b3a4,2022-11-28 20:03:44-05:00,long_tone_8,7293,7,EXP8c_Pretestexample_l_rv
pass,6345b7f49677d36bd07c5a10,EXP8c_JF,0,9077ab4ac2c6a1eaf3fb98f663c10d7b81a6cc9251094a2bb883f7723f6f0b08,2366.549044,FALSE,click,EXP8c_testRsp_rv,6306,[],choice-response,Lap,63855a7052dc2c8cc811b3a4,2022-11-28 20:03:44-05:00,short_tone_1,7448,8,EXP8c_PretestTrials_s_rv
pass,6345b7f49677d36bd07c5a10,EXP8c_JF,0,9077ab4ac2c6a1eaf3fb98f663c10d7b81a6cc9251094a2bb883f7723f6f0b08,2366.549044,FALSE,click,EXP8c_testRsp_rv,2681,[],choice-response,Lap,63855a7052dc2c8cc811b3a4,2022-11-28 20:03:44-05:00,long_tone_8,3728,9,EXP8c_PretestTrials_l_rv
pass,6345b7f49677d36bd07c5a10,EXP8c_JF,0,9077ab4ac2c6a1eaf3fb98f663c10d7b81a6cc9251094a2bb883f7723f6f0b08,2366.549044,FALSE,click,EXP8c_testRsp_rv,1406,[],choice-response,Lab,63855a7052dc2c8cc811b3a4,2022-11-28 20:03:44-05:00,short_tone_1,2211,10,EXP8c_PretestTrials_s_rv
pass,6345b7f49677d36bd07c5a10,EXP8c_JF,0,9077ab4ac2c6a1eaf3fb98f663c10d7b81a6cc9251094a2bb883f7723f6f0b08,2366.549044,FALSE,click,EXP8c_testRsp_rv,3117,[],choice-response,Lab,63855a7052dc2c8cc811b3a4,2022-11-28 20:03:44-05:00,long_tone_8,4145,11,EXP8c_PretestTrials_l_rv
pass,6345b7f49677d36bd07c5a10,EXP8c_JF,0,9077ab4ac2c6a1eaf3fb98f663c10d7b81a6cc9251094a2bb883f7723f6f0b08,2366.549044,FALSE,click,EXP8c_testRsp_rv,4169,[],choice-response,Lap,63855a7052dc2c8cc811b3a4,2022-11-28 20:03:44-05:00,short_tone_1,5112,12,EXP8c_PretestTrials_s_rv
pass,6345b7f49677d36bd07c5a10,EXP8c_JF,0,9077ab4ac2c6a1eaf3fb98f663c10d7b81a6cc9251094a2bb883f7723f6f0b08,2366.549044,FALSE,keypress,EXP8c_testRsp_rv,3089,[],choice-response,Lab,63855a7052dc2c8cc811b3a4,2022-11-28 20:03:44-05:00,long_tone_8,4026,13,EXP8c_PretestTrials_l_rv
pass,6345b7f49677d36bd07c5a10,EXP8c_JF,0,9077ab4ac2c6a1eaf3fb98f663c10d7b81a6cc9251094a2bb883f7723f6f0b08,2366.549044,FALSE,keypress,EXP8c_testRsp_rv,2971,[],choice-response,Lap,63855a7052dc2c8cc811b3a4,2022-11-28 20:03:44-05:00,short_tone_1,3782,14,EXP8c_PretestTrials_s_rv
pass,6345b7f49677d36bd07c5a10,EXP8c_JF,0,9077ab4ac2c6a1eaf3fb98f663c10d7b81a6cc9251094a2bb883f7723f6f0b08,2366.549044,FALSE,keypress,EXP8c_testRsp_rv,1929,[],choice-response,Lab,63855a7052dc2c8cc811b3a4,2022-11-28 20:03:44-05:00,long_tone_8,3465,15,EXP8c_PretestTrials_l_rv
pass,6345b7f49677d36bd07c5a10,EXP8c_JF,0,9077ab4ac2c6a1eaf3fb98f663c10d7b81a6cc9251094a2bb883f7723f6f0b08,2366.549044,FALSE,keypress,EXP8c_testRsp_rv,3964,[],choice-response,Lap,63855a7052dc2c8cc811b3a4,2022-11-28 20:03:44-05:00,short_tone_1,4816,16,EXP8c_PretestTrials_s_rv
pass,6345b7f49677d36bd07c5a10,EXP8c_JF,0,9077ab4ac2c6a1eaf3fb98f663c10d7b81a6cc9251094a2bb883f7723f6f0b08,2366.549044,FALSE,keypress,EXP8c_testRsp_rv,1083,[],choice-response,Lab,63855a7052dc2c8cc811b3a4,2022-11-28 20:03:44-05:00,long_tone_8,2156,17,EXP8c_PretestTrials_l_rv
pass,6345b7f49677d36bd07c5a10,EXP8c_JF,0,9077ab4ac2c6a1eaf3fb98f663c10d7b81a6cc9251094a2bb883f7723f6f0b08,2366.549044,FALSE,keypress,EXP8c_testRsp_rv,1766,[],choice-response,Lap,63855a7052dc2c8cc811b3a4,2022-11-28 20:03:44-05:00,long_tone_8,2762,18,EXP8c_PretestTrials_l_rv
pass,6345b7f49677d36bd07c5a10,EXP8c_JF,0,9077ab4ac2c6a1eaf3fb98f663c10d7b81a6cc9251094a2bb883f7723f6f0b08,2366.549044,FALSE,keypress,EXP8c_testRsp_rv,1515,[],choice-response,Lap,63855a7052dc2c8cc811b3a4,2022-11-28 20:03:44-05:00,short_tone_1,2284,19,EXP8c_PretestTrials_s_rv
pass,6345b7f49677d36bd07c5a10,EXP8c_JF,0,9077ab4ac2c6a1eaf3fb98f663c10d7b81a6cc9251094a2bb883f7723f6f0b08,2366.549044,FALSE,keypress,EXP8c_testRsp_rv,888,[],choice-response,Lab,63855a7052dc2c8cc811b3a4,2022-11-28 20:03:44-05:00,short_tone_1,2377,20,EXP8c_PretestTrials_s_rv
pass,6345b7f49677d36bd07c5a10,EXP8c_JF,0,9077ab4ac2c6a1eaf3fb98f663c10d7b81a6cc9251094a2bb883f7723f6f0b08,2366.549044,FALSE,keypress,EXP8c_testRsp_rv,1163,[],choice-response,Lab,63855a7052dc2c8cc811b3a4,2022-11-28 20:03:44-05:00,long_tone_8,2520,21,EXP8c_PretestTrials_l_rv
pass,6345b7f49677d36bd07c5a10,EXP8c_JF,0,9077ab4ac2c6a1eaf3fb98f663c10d7b81a6cc9251094a2bb883f7723f6f0b08,2366.549044,FALSE,keypress,EXP8c_testRsp_rv,623,[],choice-response,Lab,63855a7052dc2c8cc811b3a4,2022-11-28 20:03:44-05:00,long_tone_8,2044,22,EXP8c_PretestTrials_l_rv
pass,6345b7f49677d36bd07c5a10,EXP8c_JF,0,9077ab4ac2c6a1eaf3fb98f663c10d7b81a6cc9251094a2bb883f7723f6f0b08,2366.549044,FALSE,keypress,EXP8c_testRsp_rv,626,[],choice-response,Lap,63855a7052dc2c8cc811b3a4,2022-11-28 20:03:44-05:00,short_tone_1,1943,23,EXP8c_PretestTrials_s_rv
pass,6345b7f49677d36bd07c5a10,EXP8c_JF,0,9077ab4ac2c6a1eaf3fb98f663c10d7b81a6cc9251094a2bb883f7723f6f0b08,2366.549044,FALSE,keypress,EXP8c_testRsp_rv,674,[],choice-response,Lap,63855a7052dc2c8cc811b3a4,2022-11-28 20:03:44-05:00,short_tone_1,1765,24,EXP8c_PretestTrials_s_rv
pass,6345b7f49677d36bd07c5a10,EXP8c_JF,0,9077ab4ac2c6a1eaf3fb98f663c10d7b81a6cc9251094a2bb883f7723f6f0b08,2366.549044,FALSE,keypress,EXP8c_testRsp_rv,718,[],choice-response,Lab,63855a7052dc2c8cc811b3a4,2022-11-28 20:03:44-05:00,long_tone_8,1658,25,EXP8c_PretestTrials_l_rv
pass,6345b7f49677d36bd07c5a10,EXP8c_JF,0,9077ab4ac2c6a1eaf3fb98f663c10d7b81a6cc9251094a2bb883f7723f6f0b08,2366.549044,FALSE,keypress,EXP8c_testRsp_rv,601,[],choice-response,Lab,63855a7052dc2c8cc811b3a4,2022-11-28 20:03:44-05:00,long_tone_8,1730,26,EXP8c_PretestTrials_l_rv
pass,6345b7f49677d36bd07c5a10,EXP8c_JF,0,9077ab4ac2c6a1eaf3fb98f663c10d7b81a6cc9251094a2bb883f7723f6f0b08,2366.549044,FALSE,keypress,EXP8c_testRsp_rv,698,[],choice-response,Lap,63855a7052dc2c8cc811b3a4,2022-11-28 20:03:44-05:00,short_tone_1,1611,27,EXP8c_PretestTrials_s_rv
pass,6345b7f49677d36bd07c5a10,EXP8c_JF,0,9077ab4ac2c6a1eaf3fb98f663c10d7b81a6cc9251094a2bb883f7723f6f0b08,2366.549044,FALSE,keypress,EXP8c_testRsp_rv,560,[],choice-response,Lab,63855a7052dc2c8cc811b3a4,2022-11-28 20:03:44-05:00,long_tone_8,1669,28,EXP8c_PretestTrials_l_rv
pass,6345b7f49677d36bd07c5a10,EXP8c_JF,0,9077ab4ac2c6a1eaf3fb98f663c10d7b81a6cc9251094a2bb883f7723f6f0b08,2366.549044,FALSE,keypress,EXP8c_testRsp_rv,432,[],choice-response,Lap,63855a7052dc2c8cc811b3a4,2022-11-28 20:03:44-05:00,short_tone_1,1390,29,EXP8c_PretestTrials_s_rv
pass,6345b7f49677d36bd07c5a10,EXP8c_JF,0,9077ab4ac2c6a1eaf3fb98f663c10d7b81a6cc9251094a2bb883f7723f6f0b08,2366.549044,FALSE,keypress,EXP8c_testRsp_rv,794,[],choice-response,Lab,63855a7052dc2c8cc811b3a4,2022-11-28 20:03:44-05:00,long_tone_8,1843,30,EXP8c_PretestTrials_l_rv
pass,6345b7f49677d36bd07c5a10,EXP8c_JF,0,9077ab4ac2c6a1eaf3fb98f663c10d7b81a6cc9251094a2bb883f7723f6f0b08,2366.549044,FALSE,keypress,EXP8c_testRsp_rv,449,[],choice-response,Lap,63855a7052dc2c8cc811b3a4,2022-11-28 20:03:44-05:00,short_tone_1,1223,31,EXP8c_PretestTrials_s_rv
pass,6345b7f49677d36bd07c5a10,EXP8c_JF,0,9077ab4ac2c6a1eaf3fb98f663c10d7b81a6cc9251094a2bb883f7723f6f0b08,2366.549044,FALSE,keypress,EXP8c_testRsp_rv,694,[],choice-response,Lab,63855a7052dc2c8cc811b3a4,2022-11-28 20:03:44-05:00,long_tone_8,1815,32,EXP8c_PretestTrials_l_rv
pass,6345b7f49677d36bd07c5a10,EXP8c_JF,0,9077ab4ac2c6a1eaf3fb98f663c10d7b81a6cc9251094a2bb883f7723f6f0b08,2366.549044,FALSE,keypress,EXP8c_testRsp_rv,600,[],choice-response,Lab,63855a7052dc2c8cc811b3a4,2022-11-28 20:03:44-05:00,short_tone_1,1436,33,EXP8c_PretestTrials_s_rv
pass,6345b7f49677d36bd07c5a10,EXP8c_JF,0,9077ab4ac2c6a1eaf3fb98f663c10d7b81a6cc9251094a2bb883f7723f6f0b08,2366.549044,FALSE,keypress,EXP8c_testRsp_rv,1737,[],choice-response,Lap,63855a7052dc2c8cc811b3a4,2022-11-28 20:03:44-05:00,short_tone_1,2587,34,EXP8c_PretestTrials_s_rv
pass,6345b7f49677d36bd07c5a10,EXP8c_JF,0,9077ab4ac2c6a1eaf3fb98f663c10d7b81a6cc9251094a2bb883f7723f6f0b08,2366.549044,FALSE,keypress,EXP8c_testRsp_rv,438,[],choice-response,Lab,63855a7052dc2c8cc811b3a4,2022-11-28 20:03:44-05:00,long_tone_8,1488,35,EXP8c_PretestTrials_l_rv
pass,6345b7f49677d36bd07c5a10,EXP8c_JF,0,9077ab4ac2c6a1eaf3fb98f663c10d7b81a6cc9251094a2bb883f7723f6f0b08,2366.549044,FALSE,keypress,EXP8c_testRsp_rv,799,[],choice-response,Lap,63855a7052dc2c8cc811b3a4,2022-11-28 20:03:44-05:00,short_tone_1,1695,36,EXP8c_PretestTrials_s_rv
pass,6345b7f49677d36bd07c5a10,EXP8c_JF,0,9077ab4ac2c6a1eaf3fb98f663c10d7b81a6cc9251094a2bb883f7723f6f0b08,2366.549044,FALSE,keypress,EXP8c_testRsp_rv,600,[],choice-response,Lap,63855a7052dc2c8cc811b3a4,2022-11-28 20:03:44-05:00,long_tone_8,1577,37,EXP8c_PretestTrials_l_rv
pass,6345b7f49677d36bd07c5a10,EXP8c_JF,0,9077ab4ac2c6a1eaf3fb98f663c10d7b81a6cc9251094a2bb883f7723f6f0b08,2366.549044,FALSE,keypress,EXP8c_testRsp_rv,658,[],choice-response,Lab,63855a7052dc2c8cc811b3a4,2022-11-28 20:03:44-05:00,long_tone_8,1737,38,EXP8c_PretestTrials_l_rv
pass,6345b7f49677d36bd07c5a10,EXP8c_JF,0,9077ab4ac2c6a1eaf3fb98f663c10d7b81a6cc9251094a2bb883f7723f6f0b08,2366.549044,FALSE,keypress,EXP8c_testRsp_rv,872,[],choice-response,Lap,63855a7052dc2c8cc811b3a4,2022-11-28 20:03:44-05:00,short_tone_1,1660,39,EXP8c_PretestTrials_s_rv
pass,6345b7f49677d36bd07c5a10,EXP8c_JF,0,9077ab4ac2c6a1eaf3fb98f663c10d7b81a6cc9251094a2bb883f7723f6f0b08,2366.549044,FALSE,keypress,EXP8c_testRsp_rv,509,[],choice-response,Lab,63855a7052dc2c8cc811b3a4,2022-11-28 20:03:44-05:00,long_tone_8,1886,40,EXP8c_PretestTrials_l_rv
pass,6345b7f49677d36bd07c5a10,EXP8c_JF,0,9077ab4ac2c6a1eaf3fb98f663c10d7b81a6cc9251094a2bb883f7723f6f0b08,2366.549044,FALSE,keypress,EXP8c_testRsp_rv,387,[],choice-response,Lap,63855a7052dc2c8cc811b3a4,2022-11-28 20:03:44-05:00,short_tone_1,1238,41,EXP8c_PretestTrials_s_rv
pass,6345b7f49677d36bd07c5a10,EXP8c_JF,0,9077ab4ac2c6a1eaf3fb98f663c10d7b81a6cc9251094a2bb883f7723f6f0b08,2366.549044,FALSE,keypress,EXP8c_testRsp_rv,771,[],choice-response,Lap,63855a7052dc2c8cc811b3a4,2022-11-28 20:03:44-05:00,short_tone_1,1659,42,EXP8c_PretestTrials_s_rv
pass,6345b7f49677d36bd07c5a10,EXP8c_JF,0,9077ab4ac2c6a1eaf3fb98f663c10d7b81a6cc9251094a2bb883f7723f6f0b08,2366.549044,FALSE,keypress,EXP8c_testRsp_rv,1126,[],choice-response,Lap,63855a7052dc2c8cc811b3a4,2022-11-28 20:03:44-05:00,long_tone_8,2209,43,EXP8c_PretestTrials_l_rv
pass,6345b7f49677d36bd07c5a10,EXP8c_JF,0,9077ab4ac2c6a1eaf3fb98f663c10d7b81a6cc9251094a2bb883f7723f6f0b08,2366.549044,FALSE,keypress,EXP8c_testRsp_rv,574,[],choice-response,Lab,63855a7052dc2c8cc811b3a4,2022-11-28 20:03:44-05:00,long_tone_8,1588,44,EXP8c_PretestTrials_l_rv
pass,6345b7f49677d36bd07c5a10,EXP8c_JF,0,9077ab4ac2c6a1eaf3fb98f663c10d7b81a6cc9251094a2bb883f7723f6f0b08,2366.549044,FALSE,keypress,EXP8c_testRsp_rv,450,[],choice-response,Lap,63855a7052dc2c8cc811b3a4,2022-11-28 20:03:44-05:00,short_tone_1,1982,45,EXP8c_PretestTrials_s_rv
pass,6345b7f49677d36bd07c5a10,EXP8c_JF,0,9077ab4ac2c6a1eaf3fb98f663c10d7b81a6cc9251094a2bb883f7723f6f0b08,2366.549044,FALSE,keypress,EXP8c_testRsp_rv,1154,[],choice-response,Lap,63855a7052dc2c8cc811b3a4,2022-11-28 20:03:44-05:00,short_tone_1,1937,46,EXP8c_PretestTrials_s_rv
pass,6345b7f49677d36bd07c5a10,EXP8c_JF,0,9077ab4ac2c6a1eaf3fb98f663c10d7b81a6cc9251094a2bb883f7723f6f0b08,2366.549044,FALSE,keypress,EXP8c_testRsp_rv,509,[],choice-response,Lab,63855a7052dc2c8cc811b3a4,2022-11-28 20:03:44-05:00,long_tone_8,1508,47,EXP8c_PretestTrials_l_rv
pass,6345b7f49677d36bd07c5a10,EXP8c_JF,0,9077ab4ac2c6a1eaf3fb98f663c10d7b81a6cc9251094a2bb883f7723f6f0b08,2366.549044,FALSE,keypress,EXP8c_testRsp_rv,380,[],choice-response,Lap,63855a7052dc2c8cc811b3a4,2022-11-28 20:03:44-05:00,short_tone_1,1281,48,EXP8c_PretestTrials_s_rv
pass,6345b7f49677d36bd07c5a10,EXP8c_JF,0,9077ab4ac2c6a1eaf3fb98f663c10d7b81a6cc9251094a2bb883f7723f6f0b08,2366.549044,FALSE,keypress,EXP8c_testRsp_rv,900,[],choice-response,Lab,63855a7052dc2c8cc811b3a4,2022-11-28 20:03:44-05:00,long_tone_8,1949,49,EXP8c_PretestTrials_l_rv
pass,6345b7f49677d36bd07c5a10,EXP8c_JF,0,9077ab4ac2c6a1eaf3fb98f663c10d7b81a6cc9251094a2bb883f7723f6f0b08,2366.549044,FALSE,keypress,EXP8c_testRsp_rv,1017,[],choice-response,Lab,63855a7052dc2c8cc811b3a4,2022-11-28 20:03:44-05:00,long_tone_8,1970,50,EXP8c_PretestTrials_l_rv
pass,6345b7f49677d36bd07c5a10,EXP8c_JF,0,9077ab4ac2c6a1eaf3fb98f663c10d7b81a6cc9251094a2bb883f7723f6f0b08,2366.549044,FALSE,keypress,EXP8c_testRsp_rv,514,[],choice-response,Lap,63855a7052dc2c8cc811b3a4,2022-11-28 20:03:44-05:00,short_tone_1,1423,51,EXP8c_PretestTrials_s_rv
pass,6345b7f49677d36bd07c5a10,EXP8c_JF,0,9077ab4ac2c6a1eaf3fb98f663c10d7b81a6cc9251094a2bb883f7723f6f0b08,2366.549044,FALSE,keypress,EXP8c_testRsp_rv,419,[],choice-response,Lap,63855a7052dc2c8cc811b3a4,2022-11-28 20:03:44-05:00,short_tone_1,1315,52,EXP8c_PretestTrials_s_rv
pass,6345b7f49677d36bd07c5a10,EXP8c_JF,0,9077ab4ac2c6a1eaf3fb98f663c10d7b81a6cc9251094a2bb883f7723f6f0b08,2366.549044,FALSE,keypress,EXP8c_testRsp_rv,665,[],choice-response,Lab,63855a7052dc2c8cc811b3a4,2022-11-28 20:03:44-05:00,long_tone_8,1625,53,EXP8c_PretestTrials_l_rv
pass,6345b7f49677d36bd07c5a10,EXP8c_JF,0,9077ab4ac2c6a1eaf3fb98f663c10d7b81a6cc9251094a2bb883f7723f6f0b08,2366.549044,FALSE,keypress,EXP8c_testRsp_rv,352,[],choice-response,Lap,63855a7052dc2c8cc811b3a4,2022-11-28 20:03:44-05:00,short_tone_1,1115,54,EXP8c_PretestTrials_s_rv
pass,6345b7f49677d36bd07c5a10,EXP8c_JF,0,9077ab4ac2c6a1eaf3fb98f663c10d7b81a6cc9251094a2bb883f7723f6f0b08,2366.549044,FALSE,keypress,EXP8c_testRsp_rv,400,[],choice-response,Lab,63855a7052dc2c8cc811b3a4,2022-11-28 20:03:44-05:00,long_tone_8,1410,55,EXP8c_PretestTrials_l_rv
pass,6345b7f49677d36bd07c5a10,EXP8c_JF,0,9077ab4ac2c6a1eaf3fb98f663c10d7b81a6cc9251094a2bb883f7723f6f0b08,2366.549044,FALSE,keypress,EXP8c_testRsp_rv,332,[],choice-response,Lap,63855a7052dc2c8cc811b3a4,2022-11-28 20:03:44-05:00,short_tone_1,1152,56,EXP8c_PretestTrials_s_rv
pass,6345b7f49677d36bd07c5a10,EXP8c_JF,0,9077ab4ac2c6a1eaf3fb98f663c10d7b81a6cc9251094a2bb883f7723f6f0b08,2366.549044,FALSE,keypress,EXP8c_testRsp_rv,527,[],choice-response,Lab,63855a7052dc2c8cc811b3a4,2022-11-28 20:03:44-05:00,long_tone_8,1507,57,EXP8c_PretestTrials_l_rv
pass,6345b7f49677d36bd07c5a10,EXP8c_JF,0,9077ab4ac2c6a1eaf3fb98f663c10d7b81a6cc9251094a2bb883f7723f6f0b08,2366.549044,FALSE,keypress,EXP8c_testRsp_rv,574,[],choice-response,Lab,63855a7052dc2c8cc811b3a4,2022-11-28 20:03:44-05:00,long_tone_8,1493,58,EXP8c_PretestTrials_l_rv
pass,6345b7f49677d36bd07c5a10,EXP8c_JF,0,9077ab4ac2c6a1eaf3fb98f663c10d7b81a6cc9251094a2bb883f7723f6f0b08,2366.549044,FALSE,keypress,EXP8c_testRsp_rv,463,[],choice-response,Lab,63855a7052dc2c8cc811b3a4,2022-11-28 20:03:44-05:00,short_tone_1,1276,59,EXP8c_PretestTrials_s_rv
pass,6345b7f49677d36bd07c5a10,EXP8c_JF,0,9077ab4ac2c6a1eaf3fb98f663c10d7b81a6cc9251094a2bb883f7723f6f0b08,2366.549044,FALSE,keypress,EXP8c_testRsp_rv,286,[],choice-response,Lap,63855a7052dc2c8cc811b3a4,2022-11-28 20:03:44-05:00,short_tone_1,1050,60,EXP8c_PretestTrials_s_rv
pass,6345b7f49677d36bd07c5a10,EXP8c_JF,0,9077ab4ac2c6a1eaf3fb98f663c10d7b81a6cc9251094a2bb883f7723f6f0b08,2366.549044,FALSE,keypress,EXP8c_testRsp_rv,685,[],choice-response,Lap,63855a7052dc2c8cc811b3a4,2022-11-28 20:03:44-05:00,long_tone_8,1809,61,EXP8c_PretestTrials_l_rv
pass,6345b7f49677d36bd07c5a10,EXP8c_JF,0,9077ab4ac2c6a1eaf3fb98f663c10d7b81a6cc9251094a2bb883f7723f6f0b08,2366.549044,FALSE,keypress,EXP8c_testRsp_rv,430,[],choice-response,Lap,63855a7052dc2c8cc811b3a4,2022-11-28 20:03:44-05:00,short_tone_1,1461,62,EXP8c_PretestTrials_s_rv
pass,6345b7f49677d36bd07c5a10,EXP8c_JF,0,9077ab4ac2c6a1eaf3fb98f663c10d7b81a6cc9251094a2bb883f7723f6f0b08,2366.549044,FALSE,keypress,EXP8c_testRsp_rv,375,[],choice-response,Lab,63855a7052dc2c8cc811b3a4,2022-11-28 20:03:44-05:00,long_tone_8,1380,63,EXP8c_PretestTrials_l_rv
pass,6345b7f49677d36bd07c5a10,EXP8c_JF,0,9077ab4ac2c6a1eaf3fb98f663c10d7b81a6cc9251094a2bb883f7723f6f0b08,2366.549044,FALSE,keypress,EXP8c_testRsp_rv,257,[],choice-response,Lap,63855a7052dc2c8cc811b3a4,2022-11-28 20:03:44-05:00,short_tone_1,1135,64,EXP8c_PretestTrials_s_rv
pass,6345b7f49677d36bd07c5a10,EXP8c_JF,0,9077ab4ac2c6a1eaf3fb98f663c10d7b81a6cc9251094a2bb883f7723f6f0b08,2366.549044,FALSE,keypress,EXP8c_testRsp_rv,463,[],choice-response,Lap,63855a7052dc2c8cc811b3a4,2022-11-28 20:03:44-05:00,long_tone_8,1507,65,EXP8c_PretestTrials_l_rv
pass,6345b7f49677d36bd07c5a10,EXP8c_JF,0,9077ab4ac2c6a1eaf3fb98f663c10d7b81a6cc9251094a2bb883f7723f6f0b08,2366.549044,FALSE,keypress,EXP8c_testRsp_rv,700,[],choice-response,Lap,63855a7052dc2c8cc811b3a4,2022-11-28 20:03:44-05:00,short_tone_1,1729,66,EXP8c_PretestTrials_s_rv
pass,6345b7f49677d36bd07c5a10,EXP8c_JF,0,9077ab4ac2c6a1eaf3fb98f663c10d7b81a6cc9251094a2bb883f7723f6f0b08,2366.549044,FALSE,keypress,EXP8c_testRsp_rv,550,[],choice-response,Lab,63855a7052dc2c8cc811b3a4,2022-11-28 20:03:44-05:00,long_tone_8,1532,67,EXP8c_PretestTrials_l_rv
pass,6345b7f49677d36bd07c5a10,EXP8c_JF,0,9077ab4ac2c6a1eaf3fb98f663c10d7b81a6cc9251094a2bb883f7723f6f0b08,2366.549044,FALSE,keypress,EXP8c_exampleRsp_s_J,4197,['Lap'],choice-response,Lab,63855a7052dc2c8cc811b3a4,2022-11-28 20:03:44-05:00,single_300ms_ontime_delay_2_tone_Lab_1,10173,68,EXP8c_example_s_rv
pass,6345b7f49677d36bd07c5a10,EXP8c_JF,0,9077ab4ac2c6a1eaf3fb98f663c10d7b81a6cc9251094a2bb883f7723f6f0b08,2366.549044,TRUE,keypress,EXP8c_exampleRsp_l_F,1760,['Lab'],choice-response,Lab,63855a7052dc2c8cc811b3a4,2022-11-28 20:03:44-05:00,single_300ms_ontime_delay_2_tone_Lab_8,7742,69,EXP8c_example_l_rv
pass,6345b7f49677d36bd07c5a10,EXP8c_JF,0,9077ab4ac2c6a1eaf3fb98f663c10d7b81a6cc9251094a2bb883f7723f6f0b08,2366.549044,TRUE,keypress,EXP8c_exampleRsp_l_F,1301,['Lab'],choice-response,Lab,63855a7052dc2c8cc811b3a4,2022-11-28 20:03:44-05:00,single_300ms_ontime_delay_2_tone_Lab_8,7377,70,EXP8c_example_l_rv
pass,6345b7f49677d36bd07c5a10,EXP8c_JF,0,9077ab4ac2c6a1eaf3fb98f663c10d7b81a6cc9251094a2bb883f7723f6f0b08,2366.549044,TRUE,keypress,EXP8c_exampleRsp_s_J,2128,['Lap'],choice-response,Lap,63855a7052dc2c8cc811b3a4,2022-11-28 20:03:44-05:00,single_300ms_ontime_delay_2_tone_Lab_1,7825,71,EXP8c_example_s_rv
pass,6345b7f49677d36bd07c5a10,EXP8c_JF,0,9077ab4ac2c6a1eaf3fb98f663c10d7b81a6cc9251094a2bb883f7723f6f0b08,2366.549044,TRUE,keypress,EXP8c_practiceRsp_l_F,751,['Lab'],choice-response,Lab,63855a7052dc2c8cc811b3a4,2022-11-28 20:03:44-05:00,single_300ms_ontime_delay_2_tone_Lab_8,6554,72,EXP8c_practiceTrials_l_rv
pass,6345b7f49677d36bd07c5a10,EXP8c_JF,0,9077ab4ac2c6a1eaf3fb98f663c10d7b81a6cc9251094a2bb883f7723f6f0b08,2366.549044,TRUE,keypress,EXP8c_practiceRsp_s_J,864,['Lap'],choice-response,Lap,63855a7052dc2c8cc811b3a4,2022-11-28 20:03:44-05:00,single_300ms_ontime_delay_2_tone_Lab_1,6845,73,EXP8c_practiceTrials_s_rv
pass,6345b7f49677d36bd07c5a10,EXP8c_JF,0,9077ab4ac2c6a1eaf3fb98f663c10d7b81a6cc9251094a2bb883f7723f6f0b08,2366.549044,TRUE,keypress,EXP8c_practiceRsp_l_F,535,['Lab'],choice-response,Lab,63855a7052dc2c8cc811b3a4,2022-11-28 20:03:44-05:00,single_300ms_ontime_delay_2_tone_Lab_8,6428,74,EXP8c_practiceTrials_l_rv
pass,6345b7f49677d36bd07c5a10,EXP8c_JF,0,9077ab4ac2c6a1eaf3fb98f663c10d7b81a6cc9251094a2bb883f7723f6f0b08,2366.549044,TRUE,keypress,EXP8c_practiceRsp_s_J,708,['Lap'],choice-response,Lap,63855a7052dc2c8cc811b3a4,2022-11-28 20:03:44-05:00,single_300ms_ontime_delay_2_tone_Lab_1,6442,75,EXP8c_practiceTrials_s_rv
pass,6345b7f49677d36bd07c5a10,EXP8c_JF,0,9077ab4ac2c6a1eaf3fb98f663c10d7b81a6cc9251094a2bb883f7723f6f0b08,2366.549044,TRUE,keypress,EXP8c_practiceRsp_s_J,1021,['Lap'],choice-response,Lap,63855a7052dc2c8cc811b3a4,2022-11-28 20:03:44-05:00,single_300ms_ontime_delay_2_tone_Lab_1,6943,76,EXP8c_practiceTrials_s_rv
pass,6345b7f49677d36bd07c5a10,EXP8c_JF,0,9077ab4ac2c6a1eaf3fb98f663c10d7b81a6cc9251094a2bb883f7723f6f0b08,2366.549044,TRUE,keypress,EXP8c_practiceRsp_l_F,396,['Lab'],choice-response,Lab,63855a7052dc2c8cc811b3a4,2022-11-28 20:03:44-05:00,single_300ms_ontime_delay_2_tone_Lab_8,6210,77,EXP8c_practiceTrials_l_rv
pass,6345b7f49677d36bd07c5a10,EXP8c_JF,0,9077ab4ac2c6a1eaf3fb98f663c10d7b81a6cc9251094a2bb883f7723f6f0b08,2366.549044,FALSE,keypress,EXP8c_practiceRsp_l_F,1320,['Lab'],choice-response,Lap,63855a7052dc2c8cc811b3a4,2022-11-28 20:03:44-05:00,single_300ms_ontime_delay_2_tone_Lab_8,7210,78,EXP8c_practiceTrials_l_rv
pass,6345b7f49677d36bd07c5a10,EXP8c_JF,0,9077ab4ac2c6a1eaf3fb98f663c10d7b81a6cc9251094a2bb883f7723f6f0b08,2366.549044,TRUE,keypress,EXP8c_practiceRsp_s_J,507,['Lap'],choice-response,Lap,63855a7052dc2c8cc811b3a4,2022-11-28 20:03:44-05:00,single_300ms_ontime_delay_2_tone_Lab_1,6260,79,EXP8c_practiceTrials_s_rv
pass,6345b7f49677d36bd07c5a10,EXP8c_JF,0,9077ab4ac2c6a1eaf3fb98f663c10d7b81a6cc9251094a2bb883f7723f6f0b08,2366.549044,TRUE,keypress,EXP8c_practiceRsp_s_J,520,['Lap'],choice-response,Lap,63855a7052dc2c8cc811b3a4,2022-11-28 20:03:44-05:00,single_300ms_ontime_delay_2_tone_Lab_1,6725,80,EXP8c_practiceTrials_s_rv
pass,6345b7f49677d36bd07c5a10,EXP8c_JF,0,9077ab4ac2c6a1eaf3fb98f663c10d7b81a6cc9251094a2bb883f7723f6f0b08,2366.549044,TRUE,keypress,EXP8c_practiceRsp_l_F,530,['Lab'],choice-response,Lab,63855a7052dc2c8cc811b3a4,2022-11-28 20:03:44-05:00,single_300ms_ontime_delay_2_tone_Lab_8,6493,81,EXP8c_practiceTrials_l_rv
pass,6345b7f49677d36bd07c5a10,EXP8c_JF,0,9077ab4ac2c6a1eaf3fb98f663c10d7b81a6cc9251094a2bb883f7723f6f0b08,2366.549044,TRUE,keypress,EXP8c_practiceRsp_s_J,1631,['Lap'],choice-response,Lap,63855a7052dc2c8cc811b3a4,2022-11-28 20:03:44-05:00,single_300ms_ontime_delay_2_tone_Lab_1,7227,82,EXP8c_practiceTrials_s_rv
pass,6345b7f49677d36bd07c5a10,EXP8c_JF,0,9077ab4ac2c6a1eaf3fb98f663c10d7b81a6cc9251094a2bb883f7723f6f0b08,2366.549044,TRUE,keypress,EXP8c_practiceRsp_l_F,344,['Lab'],choice-response,Lab,63855a7052dc2c8cc811b3a4,2022-11-28 20:03:44-05:00,single_300ms_ontime_delay_2_tone_Lab_8,6278,83,EXP8c_practiceTrials_l_rv
pass,6345b7f49677d36bd07c5a10,EXP8c_JF,0,9077ab4ac2c6a1eaf3fb98f663c10d7b81a6cc9251094a2bb883f7723f6f0b08,2366.549044,TRUE,keypress,EXP8c_practiceRsp_s_J,1024,['Lap'],choice-response,Lap,63855a7052dc2c8cc811b3a4,2022-11-28 20:03:44-05:00,single_300ms_ontime_delay_2_tone_Lab_1,6711,84,EXP8c_practiceTrials_s_rv
pass,6345b7f49677d36bd07c5a10,EXP8c_JF,0,9077ab4ac2c6a1eaf3fb98f663c10d7b81a6cc9251094a2bb883f7723f6f0b08,2366.549044,TRUE,keypress,EXP8c_practiceRsp_l_F,359,['Lab'],choice-response,Lab,63855a7052dc2c8cc811b3a4,2022-11-28 20:03:44-05:00,single_300ms_ontime_delay_2_tone_Lab_8,6110,85,EXP8c_practiceTrials_l_rv
pass,6345b7f49677d36bd07c5a10,EXP8c_JF,0,9077ab4ac2c6a1eaf3fb98f663c10d7b81a6cc9251094a2bb883f7723f6f0b08,2366.549044,TRUE,keypress,EXP8c_practiceRsp_s_J,1062,['Lap'],choice-response,Lap,63855a7052dc2c8cc811b3a4,2022-11-28 20:03:44-05:00,single_300ms_ontime_delay_2_tone_Lab_1,6842,86,EXP8c_practiceTrials_s_rv
pass,6345b7f49677d36bd07c5a10,EXP8c_JF,0,9077ab4ac2c6a1eaf3fb98f663c10d7b81a6cc9251094a2bb883f7723f6f0b08,2366.549044,TRUE,keypress,EXP8c_practiceRsp_l_F,469,['Lab'],choice-response,Lab,63855a7052dc2c8cc811b3a4,2022-11-28 20:03:44-05:00,single_300ms_ontime_delay_2_tone_Lab_8,6208,87,EXP8c_practiceTrials_l_rv
pass,6345b7f49677d36bd07c5a10,EXP8c_JF,0,9077ab4ac2c6a1eaf3fb98f663c10d7b81a6cc9251094a2bb883f7723f6f0b08,2366.549044,TRUE,keypress,EXP8c_practiceRsp_s_J,799,['Lap'],choice-response,Lap,63855a7052dc2c8cc811b3a4,2022-11-28 20:03:44-05:00,single_300ms_ontime_delay_2_tone_Lab_1,6560,88,EXP8c_practiceTrials_s_rv
pass,6345b7f49677d36bd07c5a10,EXP8c_JF,0,9077ab4ac2c6a1eaf3fb98f663c10d7b81a6cc9251094a2bb883f7723f6f0b08,2366.549044,TRUE,keypress,EXP8c_practiceRsp_l_F,329,['Lab'],choice-response,Lab,63855a7052dc2c8cc811b3a4,2022-11-28 20:03:44-05:00,single_300ms_ontime_delay_2_tone_Lab_8,5992,89,EXP8c_practiceTrials_l_rv
pass,6345b7f49677d36bd07c5a10,EXP8c_JF,0,9077ab4ac2c6a1eaf3fb98f663c10d7b81a6cc9251094a2bb883f7723f6f0b08,2366.549044,TRUE,keypress,EXP8c_practiceRsp_l_F,478,['Lab'],choice-response,Lab,63855a7052dc2c8cc811b3a4,2022-11-28 20:03:44-05:00,single_300ms_ontime_delay_2_tone_Lab_8,6259,90,EXP8c_practiceTrials_l_rv
pass,6345b7f49677d36bd07c5a10,EXP8c_JF,0,9077ab4ac2c6a1eaf3fb98f663c10d7b81a6cc9251094a2bb883f7723f6f0b08,2366.549044,TRUE,keypress,EXP8c_practiceRsp_s_J,666,['Lap'],choice-response,Lap,63855a7052dc2c8cc811b3a4,2022-11-28 20:03:44-05:00,single_300ms_ontime_delay_2_tone_Lab_1,6258,91,EXP8c_practiceTrials_s_rv
pass,6345b7f49677d36bd07c5a10,EXP8c_JF,0,9077ab4ac2c6a1eaf3fb98f663c10d7b81a6cc9251094a2bb883f7723f6f0b08,2366.549044,TRUE,keypress,EXP8c_practiceRsp_s_J,1507,['Lap'],choice-response,Lap,63855a7052dc2c8cc811b3a4,2022-11-28 20:03:44-05:00,single_300ms_ontime_delay_2_tone_Lab_1,7044,92,EXP8c_practiceTrials_s_rv
pass,6345b7f49677d36bd07c5a10,EXP8c_JF,0,9077ab4ac2c6a1eaf3fb98f663c10d7b81a6cc9251094a2bb883f7723f6f0b08,2366.549044,TRUE,keypress,EXP8c_practiceRsp_l_F,694,['Lab'],choice-response,Lab,63855a7052dc2c8cc811b3a4,2022-11-28 20:03:44-05:00,single_300ms_ontime_delay_2_tone_Lab_8,6793,93,EXP8c_practiceTrials_l_rv
pass,6345b7f49677d36bd07c5a10,EXP8c_JF,0,9077ab4ac2c6a1eaf3fb98f663c10d7b81a6cc9251094a2bb883f7723f6f0b08,2366.549044,FALSE,keypress,EXP8c_practiceRsp_l_F,1083,['Lab'],choice-response,Lap,63855a7052dc2c8cc811b3a4,2022-11-28 20:03:44-05:00,single_300ms_ontime_delay_2_tone_Lab_8,6827,94,EXP8c_practiceTrials_l_rv
pass,6345b7f49677d36bd07c5a10,EXP8c_JF,0,9077ab4ac2c6a1eaf3fb98f663c10d7b81a6cc9251094a2bb883f7723f6f0b08,2366.549044,FALSE,keypress,EXP8c_practiceRsp_s_J,315,['Lap'],choice-response,Lab,63855a7052dc2c8cc811b3a4,2022-11-28 20:03:44-05:00,single_300ms_ontime_delay_2_tone_Lab_1,5977,95,EXP8c_practiceTrials_s_rv
pass,6345b7f49677d36bd07c5a10,EXP8c_JF,0,9077ab4ac2c6a1eaf3fb98f663c10d7b81a6cc9251094a2bb883f7723f6f0b08,2366.549044,FALSE,keypress,EXP8c_testRsp_rv,440,[],choice-response,Lab,63855a7052dc2c8cc811b3a4,2022-11-28 20:03:44-05:00,single_300ms_ontime_delay_2_tone_Lab_4,3604,96,EXP8c_maintaskTrials_2_s_rv
pass,6345b7f49677d36bd07c5a10,EXP8c_JF,0,9077ab4ac2c6a1eaf3fb98f663c10d7b81a6cc9251094a2bb883f7723f6f0b08,2366.549044,FALSE,keypress,EXP8c_testRsp_rv,497,[],choice-response,Lap,63855a7052dc2c8cc811b3a4,2022-11-28 20:03:44-05:00,single_300ms_ontime_delay_2_tone_Lab_3,3445,97,EXP8c_maintaskTrials_2_s_rv
pass,6345b7f49677d36bd07c5a10,EXP8c_JF,0,9077ab4ac2c6a1eaf3fb98f663c10d7b81a6cc9251094a2bb883f7723f6f0b08,2366.549044,FALSE,keypress,EXP8c_testRsp_rv,936,[],choice-response,Lap,63855a7052dc2c8cc811b3a4,2022-11-28 20:03:44-05:00,single_300ms_ontime_delay_2_tone_Lab_8,4169,98,EXP8c_maintaskTrials_2_l_rv
pass,6345b7f49677d36bd07c5a10,EXP8c_JF,0,9077ab4ac2c6a1eaf3fb98f663c10d7b81a6cc9251094a2bb883f7723f6f0b08,2366.549044,FALSE,keypress,EXP8c_testRsp_rv,336,[],choice-response,Lab,63855a7052dc2c8cc811b3a4,2022-11-28 20:03:44-05:00,single_300ms_late_delay_2_tone_Lab_2,3419,99,EXP8c_maintaskTrials_2_s_rv
pass,6345b7f49677d36bd07c5a10,EXP8c_JF,0,9077ab4ac2c6a1eaf3fb98f663c10d7b81a6cc9251094a2bb883f7723f6f0b08,2366.549044,FALSE,keypress,EXP8c_testRsp_rv,613,[],choice-response,Lab,63855a7052dc2c8cc811b3a4,2022-11-28 20:03:44-05:00,single_300ms_early_delay_2_tone_Lab_3,3621,100,EXP8c_maintaskTrials_2_s_rv
pass,6345b7f49677d36bd07c5a10,EXP8c_JF,0,9077ab4ac2c6a1eaf3fb98f663c10d7b81a6cc9251094a2bb883f7723f6f0b08,2366.549044,FALSE,keypress,EXP8c_testRsp_rv,875,[],choice-response,Lab,63855a7052dc2c8cc811b3a4,2022-11-28 20:03:44-05:00,single_300ms_early_delay_2_tone_Lab_8,4065,101,EXP8c_maintaskTrials_2_l_rv
pass,6345b7f49677d36bd07c5a10,EXP8c_JF,0,9077ab4ac2c6a1eaf3fb98f663c10d7b81a6cc9251094a2bb883f7723f6f0b08,2366.549044,FALSE,keypress,EXP8c_testRsp_rv,327,[],choice-response,Lap,63855a7052dc2c8cc811b3a4,2022-11-28 20:03:44-05:00,single_300ms_ontime_delay_2_tone_Lab_1,3237,102,EXP8c_maintaskTrials_2_s_rv
pass,6345b7f49677d36bd07c5a10,EXP8c_JF,0,9077ab4ac2c6a1eaf3fb98f663c10d7b81a6cc9251094a2bb883f7723f6f0b08,2366.549044,FALSE,keypress,EXP8c_testRsp_rv,349,[],choice-response,Lap,63855a7052dc2c8cc811b3a4,2022-11-28 20:03:44-05:00,single_300ms_ontime_delay_2_tone_Lab_2,3268,103,EXP8c_maintaskTrials_2_s_rv
pass,6345b7f49677d36bd07c5a10,EXP8c_JF,0,9077ab4ac2c6a1eaf3fb98f663c10d7b81a6cc9251094a2bb883f7723f6f0b08,2366.549044,FALSE,keypress,EXP8c_testRsp_rv,767,[],choice-response,Lap,63855a7052dc2c8cc811b3a4,2022-11-28 20:03:44-05:00,single_300ms_ontime_delay_2_tone_Lab_5,3878,104,EXP8c_maintaskTrials_2_l_rv
pass,6345b7f49677d36bd07c5a10,EXP8c_JF,0,9077ab4ac2c6a1eaf3fb98f663c10d7b81a6cc9251094a2bb883f7723f6f0b08,2366.549044,FALSE,keypress,EXP8c_testRsp_rv,1306,[],choice-response,Lap,63855a7052dc2c8cc811b3a4,2022-11-28 20:03:44-05:00,single_300ms_late_delay_2_tone_Lab_1,4334,105,EXP8c_maintaskTrials_2_s_rv
pass,6345b7f49677d36bd07c5a10,EXP8c_JF,0,9077ab4ac2c6a1eaf3fb98f663c10d7b81a6cc9251094a2bb883f7723f6f0b08,2366.549044,FALSE,keypress,EXP8c_testRsp_rv,349,[],choice-response,Lab,63855a7052dc2c8cc811b3a4,2022-11-28 20:03:44-05:00,single_300ms_early_delay_2_tone_Lab_5,3297,106,EXP8c_maintaskTrials_2_l_rv
pass,6345b7f49677d36bd07c5a10,EXP8c_JF,0,9077ab4ac2c6a1eaf3fb98f663c10d7b81a6cc9251094a2bb883f7723f6f0b08,2366.549044,TRUE,keypress,cat_catchRsp,2478,['Cat meowing'],choice-response,Cat meowing,63855a7052dc2c8cc811b3a4,2022-11-28 20:03:44-05:00,cat_meowing,5149,107,Catch_trials
pass,6345b7f49677d36bd07c5a10,EXP8c_JF,0,9077ab4ac2c6a1eaf3fb98f663c10d7b81a6cc9251094a2bb883f7723f6f0b08,2366.549044,FALSE,keypress,EXP8c_testRsp_rv,482,[],choice-response,Lab,63855a7052dc2c8cc811b3a4,2022-11-28 20:03:44-05:00,single_300ms_late_delay_2_tone_Lab_6,3574,108,EXP8c_maintaskTrials_2_l_rv
pass,6345b7f49677d36bd07c5a10,EXP8c_JF,0,9077ab4ac2c6a1eaf3fb98f663c10d7b81a6cc9251094a2bb883f7723f6f0b08,2366.549044,FALSE,keypress,EXP8c_testRsp_rv,520,[],choice-response,Lap,63855a7052dc2c8cc811b3a4,2022-11-28 20:03:44-05:00,single_300ms_late_delay_2_tone_Lab_5,3585,109,EXP8c_maintaskTrials_2_l_rv
pass,6345b7f49677d36bd07c5a10,EXP8c_JF,0,9077ab4ac2c6a1eaf3fb98f663c10d7b81a6cc9251094a2bb883f7723f6f0b08,2366.549044,FALSE,keypress,EXP8c_testRsp_rv,382,[],choice-response,Lap,63855a7052dc2c8cc811b3a4,2022-11-28 20:03:44-05:00,single_300ms_early_delay_2_tone_Lab_4,3292,110,EXP8c_maintaskTrials_2_s_rv
pass,6345b7f49677d36bd07c5a10,EXP8c_JF,0,9077ab4ac2c6a1eaf3fb98f663c10d7b81a6cc9251094a2bb883f7723f6f0b08,2366.549044,FALSE,keypress,EXP8c_testRsp_rv,666,[],choice-response,Lap,63855a7052dc2c8cc811b3a4,2022-11-28 20:03:44-05:00,single_300ms_early_delay_2_tone_Lab_1,3473,111,EXP8c_maintaskTrials_2_s_rv
pass,6345b7f49677d36bd07c5a10,EXP8c_JF,0,9077ab4ac2c6a1eaf3fb98f663c10d7b81a6cc9251094a2bb883f7723f6f0b08,2366.549044,FALSE,keypress,EXP8c_testRsp_rv,603,[],choice-response,Lab,63855a7052dc2c8cc811b3a4,2022-11-28 20:03:44-05:00,single_300ms_early_delay_2_tone_Lab_7,3608,112,EXP8c_maintaskTrials_2_l_rv
pass,6345b7f49677d36bd07c5a10,EXP8c_JF,0,9077ab4ac2c6a1eaf3fb98f663c10d7b81a6cc9251094a2bb883f7723f6f0b08,2366.549044,FALSE,keypress,EXP8c_testRsp_rv,488,[],choice-response,Lap,63855a7052dc2c8cc811b3a4,2022-11-28 20:03:44-05:00,single_300ms_early_delay_2_tone_Lab_6,3349,113,EXP8c_maintaskTrials_2_l_rv
pass,6345b7f49677d36bd07c5a10,EXP8c_JF,0,9077ab4ac2c6a1eaf3fb98f663c10d7b81a6cc9251094a2bb883f7723f6f0b08,2366.549044,FALSE,keypress,EXP8c_testRsp_rv,1051,[],choice-response,Lap,63855a7052dc2c8cc811b3a4,2022-11-28 20:03:44-05:00,single_300ms_ontime_delay_2_tone_Lab_7,4064,114,EXP8c_maintaskTrials_2_l_rv
pass,6345b7f49677d36bd07c5a10,EXP8c_JF,0,9077ab4ac2c6a1eaf3fb98f663c10d7b81a6cc9251094a2bb883f7723f6f0b08,2366.549044,FALSE,keypress,EXP8c_testRsp_rv,698,[],choice-response,Lab,63855a7052dc2c8cc811b3a4,2022-11-28 20:03:44-05:00,single_300ms_ontime_delay_2_tone_Lab_6,3686,115,EXP8c_maintaskTrials_2_l_rv
pass,6345b7f49677d36bd07c5a10,EXP8c_JF,0,9077ab4ac2c6a1eaf3fb98f663c10d7b81a6cc9251094a2bb883f7723f6f0b08,2366.549044,FALSE,keypress,EXP8c_testRsp_rv,510,[],choice-response,Lap,63855a7052dc2c8cc811b3a4,2022-11-28 20:03:44-05:00,single_300ms_late_delay_2_tone_Lab_4,3640,116,EXP8c_maintaskTrials_2_s_rv
pass,6345b7f49677d36bd07c5a10,EXP8c_JF,0,9077ab4ac2c6a1eaf3fb98f663c10d7b81a6cc9251094a2bb883f7723f6f0b08,2366.549044,FALSE,keypress,EXP8c_testRsp_rv,429,[],choice-response,Lab,63855a7052dc2c8cc811b3a4,2022-11-28 20:03:44-05:00,single_300ms_late_delay_2_tone_Lab_7,3546,117,EXP8c_maintaskTrials_2_l_rv
pass,6345b7f49677d36bd07c5a10,EXP8c_JF,0,9077ab4ac2c6a1eaf3fb98f663c10d7b81a6cc9251094a2bb883f7723f6f0b08,2366.549044,FALSE,keypress,EXP8c_testRsp_rv,512,[],choice-response,Lap,63855a7052dc2c8cc811b3a4,2022-11-28 20:03:44-05:00,single_300ms_late_delay_2_tone_Lab_3,3633,118,EXP8c_maintaskTrials_2_s_rv
pass,6345b7f49677d36bd07c5a10,EXP8c_JF,0,9077ab4ac2c6a1eaf3fb98f663c10d7b81a6cc9251094a2bb883f7723f6f0b08,2366.549044,TRUE,keypress,bird_catchRsp,2029,['Bird singing'],choice-response,Bird singing,63855a7052dc2c8cc811b3a4,2022-11-28 20:03:44-05:00,songbird,4625,119,Catch_trials
pass,6345b7f49677d36bd07c5a10,EXP8c_JF,0,9077ab4ac2c6a1eaf3fb98f663c10d7b81a6cc9251094a2bb883f7723f6f0b08,2366.549044,FALSE,keypress,EXP8c_testRsp_rv,785,[],choice-response,Lab,63855a7052dc2c8cc811b3a4,2022-11-28 20:03:44-05:00,single_300ms_late_delay_2_tone_Lab_8,3902,120,EXP8c_maintaskTrials_2_l_rv
pass,6345b7f49677d36bd07c5a10,EXP8c_JF,0,9077ab4ac2c6a1eaf3fb98f663c10d7b81a6cc9251094a2bb883f7723f6f0b08,2366.549044,FALSE,keypress,EXP8c_testRsp_rv,366,[],choice-response,Lap,63855a7052dc2c8cc811b3a4,2022-11-28 20:03:44-05:00,single_300ms_early_delay_2_tone_Lab_2,3236,121,EXP8c_maintaskTrials_2_s_rv
pass,6345b7f49677d36bd07c5a10,EXP8c_JF,0,9077ab4ac2c6a1eaf3fb98f663c10d7b81a6cc9251094a2bb883f7723f6f0b08,2366.549044,FALSE,keypress,EXP8c_testRsp_rv,543,[],choice-response,Lab,63855a7052dc2c8cc811b3a4,2022-11-28 20:03:44-05:00,single_300ms_early_delay_2_tone_Lab_8,3478,122,EXP8c_maintaskTrials_2_l_rv
pass,6345b7f49677d36bd07c5a10,EXP8c_JF,0,9077ab4ac2c6a1eaf3fb98f663c10d7b81a6cc9251094a2bb883f7723f6f0b08,2366.549044,FALSE,keypress,EXP8c_testRsp_rv,421,[],choice-response,Lap,63855a7052dc2c8cc811b3a4,2022-11-28 20:03:44-05:00,single_300ms_early_delay_2_tone_Lab_2,3245,123,EXP8c_maintaskTrials_2_s_rv
pass,6345b7f49677d36bd07c5a10,EXP8c_JF,0,9077ab4ac2c6a1eaf3fb98f663c10d7b81a6cc9251094a2bb883f7723f6f0b08,2366.549044,FALSE,keypress,EXP8c_testRsp_rv,320,[],choice-response,Lab,63855a7052dc2c8cc811b3a4,2022-11-28 20:03:44-05:00,single_300ms_early_delay_2_tone_Lab_7,3244,124,EXP8c_maintaskTrials_2_l_rv
pass,6345b7f49677d36bd07c5a10,EXP8c_JF,0,9077ab4ac2c6a1eaf3fb98f663c10d7b81a6cc9251094a2bb883f7723f6f0b08,2366.549044,FALSE,keypress,EXP8c_testRsp_rv,516,[],choice-response,Lap,63855a7052dc2c8cc811b3a4,2022-11-28 20:03:44-05:00,single_300ms_early_delay_2_tone_Lab_3,3523,125,EXP8c_maintaskTrials_2_s_rv
pass,6345b7f49677d36bd07c5a10,EXP8c_JF,0,9077ab4ac2c6a1eaf3fb98f663c10d7b81a6cc9251094a2bb883f7723f6f0b08,2366.549044,FALSE,keypress,EXP8c_testRsp_rv,1593,[],choice-response,Lap,63855a7052dc2c8cc811b3a4,2022-11-28 20:03:44-05:00,single_300ms_early_delay_2_tone_Lab_6,4530,126,EXP8c_maintaskTrials_2_l_rv
pass,6345b7f49677d36bd07c5a10,EXP8c_JF,0,9077ab4ac2c6a1eaf3fb98f663c10d7b81a6cc9251094a2bb883f7723f6f0b08,2366.549044,FALSE,keypress,EXP8c_testRsp_rv,387,[],choice-response,Lap,63855a7052dc2c8cc811b3a4,2022-11-28 20:03:44-05:00,single_300ms_ontime_delay_2_tone_Lab_1,3290,127,EXP8c_maintaskTrials_2_s_rv
pass,6345b7f49677d36bd07c5a10,EXP8c_JF,0,9077ab4ac2c6a1eaf3fb98f663c10d7b81a6cc9251094a2bb883f7723f6f0b08,2366.549044,FALSE,keypress,EXP8c_testRsp_rv,1277,[],choice-response,Lab,63855a7052dc2c8cc811b3a4,2022-11-28 20:03:44-05:00,single_300ms_late_delay_2_tone_Lab_5,4348,128,EXP8c_maintaskTrials_2_l_rv
pass,6345b7f49677d36bd07c5a10,EXP8c_JF,0,9077ab4ac2c6a1eaf3fb98f663c10d7b81a6cc9251094a2bb883f7723f6f0b08,2366.549044,FALSE,keypress,EXP8c_testRsp_rv,598,[],choice-response,Lab,63855a7052dc2c8cc811b3a4,2022-11-28 20:03:44-05:00,single_300ms_late_delay_2_tone_Lab_7,3707,129,EXP8c_maintaskTrials_2_l_rv
pass,6345b7f49677d36bd07c5a10,EXP8c_JF,0,9077ab4ac2c6a1eaf3fb98f663c10d7b81a6cc9251094a2bb883f7723f6f0b08,2366.549044,FALSE,keypress,EXP8c_testRsp_rv,463,[],choice-response,Lab,63855a7052dc2c8cc811b3a4,2022-11-28 20:03:44-05:00,single_300ms_ontime_delay_2_tone_Lab_8,3527,130,EXP8c_maintaskTrials_2_l_rv
pass,6345b7f49677d36bd07c5a10,EXP8c_JF,0,9077ab4ac2c6a1eaf3fb98f663c10d7b81a6cc9251094a2bb883f7723f6f0b08,2366.549044,TRUE,keypress,cat_catchRsp,1288,['Cat meowing'],choice-response,Cat meowing,63855a7052dc2c8cc811b3a4,2022-11-28 20:03:44-05:00,cat_meowing,3844,131,Catch_trials
pass,6345b7f49677d36bd07c5a10,EXP8c_JF,0,9077ab4ac2c6a1eaf3fb98f663c10d7b81a6cc9251094a2bb883f7723f6f0b08,2366.549044,FALSE,keypress,EXP8c_testRsp_rv,1421,[],choice-response,Lab,63855a7052dc2c8cc811b3a4,2022-11-28 20:03:44-05:00,single_300ms_ontime_delay_2_tone_Lab_7,4435,132,EXP8c_maintaskTrials_2_l_rv
pass,6345b7f49677d36bd07c5a10,EXP8c_JF,0,9077ab4ac2c6a1eaf3fb98f663c10d7b81a6cc9251094a2bb883f7723f6f0b08,2366.549044,FALSE,keypress,EXP8c_testRsp_rv,333,[],choice-response,Lap,63855a7052dc2c8cc811b3a4,2022-11-28 20:03:44-05:00,single_300ms_early_delay_2_tone_Lab_5,3221,133,EXP8c_maintaskTrials_2_l_rv
pass,6345b7f49677d36bd07c5a10,EXP8c_JF,0,9077ab4ac2c6a1eaf3fb98f663c10d7b81a6cc9251094a2bb883f7723f6f0b08,2366.549044,FALSE,keypress,EXP8c_testRsp_rv,1807,[],choice-response,Lab,63855a7052dc2c8cc811b3a4,2022-11-28 20:03:44-05:00,single_300ms_late_delay_2_tone_Lab_8,4913,134,EXP8c_maintaskTrials_2_l_rv
pass,6345b7f49677d36bd07c5a10,EXP8c_JF,0,9077ab4ac2c6a1eaf3fb98f663c10d7b81a6cc9251094a2bb883f7723f6f0b08,2366.549044,FALSE,keypress,EXP8c_testRsp_rv,546,[],choice-response,Lap,63855a7052dc2c8cc811b3a4,2022-11-28 20:03:44-05:00,single_300ms_late_delay_2_tone_Lab_2,3561,135,EXP8c_maintaskTrials_2_s_rv
pass,6345b7f49677d36bd07c5a10,EXP8c_JF,0,9077ab4ac2c6a1eaf3fb98f663c10d7b81a6cc9251094a2bb883f7723f6f0b08,2366.549044,FALSE,keypress,EXP8c_testRsp_rv,1217,[],choice-response,Lap,63855a7052dc2c8cc811b3a4,2022-11-28 20:03:44-05:00,single_300ms_late_delay_2_tone_Lab_6,4299,136,EXP8c_maintaskTrials_2_l_rv
pass,6345b7f49677d36bd07c5a10,EXP8c_JF,0,9077ab4ac2c6a1eaf3fb98f663c10d7b81a6cc9251094a2bb883f7723f6f0b08,2366.549044,FALSE,keypress,EXP8c_testRsp_rv,386,[],choice-response,Lap,63855a7052dc2c8cc811b3a4,2022-11-28 20:03:44-05:00,single_300ms_ontime_delay_2_tone_Lab_3,3302,137,EXP8c_maintaskTrials_2_s_rv
pass,6345b7f49677d36bd07c5a10,EXP8c_JF,0,9077ab4ac2c6a1eaf3fb98f663c10d7b81a6cc9251094a2bb883f7723f6f0b08,2366.549044,FALSE,keypress,EXP8c_testRsp_rv,240,[],choice-response,Lab,63855a7052dc2c8cc811b3a4,2022-11-28 20:03:44-05:00,single_300ms_ontime_delay_2_tone_Lab_6,3244,138,EXP8c_maintaskTrials_2_l_rv
pass,6345b7f49677d36bd07c5a10,EXP8c_JF,0,9077ab4ac2c6a1eaf3fb98f663c10d7b81a6cc9251094a2bb883f7723f6f0b08,2366.549044,FALSE,keypress,EXP8c_testRsp_rv,846,[],choice-response,Lap,63855a7052dc2c8cc811b3a4,2022-11-28 20:03:44-05:00,single_300ms_early_delay_2_tone_Lab_1,3642,139,EXP8c_maintaskTrials_2_s_rv
pass,6345b7f49677d36bd07c5a10,EXP8c_JF,0,9077ab4ac2c6a1eaf3fb98f663c10d7b81a6cc9251094a2bb883f7723f6f0b08,2366.549044,FALSE,keypress,EXP8c_testRsp_rv,698,[],choice-response,Lap,63855a7052dc2c8cc811b3a4,2022-11-28 20:03:44-05:00,single_300ms_ontime_delay_2_tone_Lab_2,3635,140,EXP8c_maintaskTrials_2_s_rv
pass,6345b7f49677d36bd07c5a10,EXP8c_JF,0,9077ab4ac2c6a1eaf3fb98f663c10d7b81a6cc9251094a2bb883f7723f6f0b08,2366.549044,FALSE,keypress,EXP8c_testRsp_rv,1091,[],choice-response,Lap,63855a7052dc2c8cc811b3a4,2022-11-28 20:03:44-05:00,single_300ms_late_delay_2_tone_Lab_3,4124,141,EXP8c_maintaskTrials_2_s_rv
pass,6345b7f49677d36bd07c5a10,EXP8c_JF,0,9077ab4ac2c6a1eaf3fb98f663c10d7b81a6cc9251094a2bb883f7723f6f0b08,2366.549044,FALSE,keypress,EXP8c_testRsp_rv,338,[],choice-response,Lab,63855a7052dc2c8cc811b3a4,2022-11-28 20:03:44-05:00,single_300ms_ontime_delay_2_tone_Lab_5,3302,142,EXP8c_maintaskTrials_2_l_rv
pass,6345b7f49677d36bd07c5a10,EXP8c_JF,0,9077ab4ac2c6a1eaf3fb98f663c10d7b81a6cc9251094a2bb883f7723f6f0b08,2366.549044,TRUE,keypress,bird_catchRsp,1436,['Bird singing'],choice-response,Bird singing,63855a7052dc2c8cc811b3a4,2022-11-28 20:03:44-05:00,songbird,3991,143,Catch_trials
pass,6345b7f49677d36bd07c5a10,EXP8c_JF,0,9077ab4ac2c6a1eaf3fb98f663c10d7b81a6cc9251094a2bb883f7723f6f0b08,2366.549044,FALSE,keypress,EXP8c_testRsp_rv,628,[],choice-response,Lap,63855a7052dc2c8cc811b3a4,2022-11-28 20:03:44-05:00,single_300ms_late_delay_2_tone_Lab_1,3596,144,EXP8c_maintaskTrials_2_s_rv
pass,6345b7f49677d36bd07c5a10,EXP8c_JF,0,9077ab4ac2c6a1eaf3fb98f663c10d7b81a6cc9251094a2bb883f7723f6f0b08,2366.549044,FALSE,keypress,EXP8c_testRsp_rv,392,[],choice-response,Lap,63855a7052dc2c8cc811b3a4,2022-11-28 20:03:44-05:00,single_300ms_early_delay_2_tone_Lab_4,3273,145,EXP8c_maintaskTrials_2_s_rv
pass,6345b7f49677d36bd07c5a10,EXP8c_JF,0,9077ab4ac2c6a1eaf3fb98f663c10d7b81a6cc9251094a2bb883f7723f6f0b08,2366.549044,FALSE,keypress,EXP8c_testRsp_rv,970,[],choice-response,Lap,63855a7052dc2c8cc811b3a4,2022-11-28 20:03:44-05:00,single_300ms_ontime_delay_2_tone_Lab_4,3918,146,EXP8c_maintaskTrials_2_s_rv
pass,6345b7f49677d36bd07c5a10,EXP8c_JF,0,9077ab4ac2c6a1eaf3fb98f663c10d7b81a6cc9251094a2bb883f7723f6f0b08,2366.549044,FALSE,keypress,EXP8c_testRsp_rv,562,[],choice-response,Lap,63855a7052dc2c8cc811b3a4,2022-11-28 20:03:44-05:00,single_300ms_late_delay_2_tone_Lab_4,3614,147,EXP8c_maintaskTrials_2_s_rv
pass,6345b7f49677d36bd07c5a10,EXP8c_JF,0,9077ab4ac2c6a1eaf3fb98f663c10d7b81a6cc9251094a2bb883f7723f6f0b08,2366.549044,FALSE,keypress,EXP8c_testRsp_rv,522,[],choice-response,Lap,63855a7052dc2c8cc811b3a4,2022-11-28 20:03:44-05:00,single_300ms_ontime_delay_2_tone_Lab_1,3400,148,EXP8c_maintaskTrials_2_s_rv
pass,6345b7f49677d36bd07c5a10,EXP8c_JF,0,9077ab4ac2c6a1eaf3fb98f663c10d7b81a6cc9251094a2bb883f7723f6f0b08,2366.549044,FALSE,keypress,EXP8c_testRsp_rv,609,[],choice-response,Lab,63855a7052dc2c8cc811b3a4,2022-11-28 20:03:44-05:00,single_300ms_late_delay_2_tone_Lab_4,3673,149,EXP8c_maintaskTrials_2_s_rv
pass,6345b7f49677d36bd07c5a10,EXP8c_JF,0,9077ab4ac2c6a1eaf3fb98f663c10d7b81a6cc9251094a2bb883f7723f6f0b08,2366.549044,FALSE,keypress,EXP8c_testRsp_rv,599,[],choice-response,Lab,63855a7052dc2c8cc811b3a4,2022-11-28 20:03:44-05:00,single_300ms_early_delay_2_tone_Lab_8,3573,150,EXP8c_maintaskTrials_2_l_rv
pass,6345b7f49677d36bd07c5a10,EXP8c_JF,0,9077ab4ac2c6a1eaf3fb98f663c10d7b81a6cc9251094a2bb883f7723f6f0b08,2366.549044,FALSE,keypress,EXP8c_testRsp_rv,760,[],choice-response,Lab,63855a7052dc2c8cc811b3a4,2022-11-28 20:03:44-05:00,single_300ms_ontime_delay_2_tone_Lab_7,3783,151,EXP8c_maintaskTrials_2_l_rv
pass,6345b7f49677d36bd07c5a10,EXP8c_JF,0,9077ab4ac2c6a1eaf3fb98f663c10d7b81a6cc9251094a2bb883f7723f6f0b08,2366.549044,FALSE,keypress,EXP8c_testRsp_rv,445,[],choice-response,Lab,63855a7052dc2c8cc811b3a4,2022-11-28 20:03:44-05:00,single_300ms_early_delay_2_tone_Lab_6,3369,152,EXP8c_maintaskTrials_2_l_rv
pass,6345b7f49677d36bd07c5a10,EXP8c_JF,0,9077ab4ac2c6a1eaf3fb98f663c10d7b81a6cc9251094a2bb883f7723f6f0b08,2366.549044,FALSE,keypress,EXP8c_testRsp_rv,564,[],choice-response,Lab,63855a7052dc2c8cc811b3a4,2022-11-28 20:03:44-05:00,single_300ms_early_delay_2_tone_Lab_7,3486,153,EXP8c_maintaskTrials_2_l_rv
pass,6345b7f49677d36bd07c5a10,EXP8c_JF,0,9077ab4ac2c6a1eaf3fb98f663c10d7b81a6cc9251094a2bb883f7723f6f0b08,2366.549044,FALSE,keypress,EXP8c_testRsp_rv,603,[],choice-response,Lap,63855a7052dc2c8cc811b3a4,2022-11-28 20:03:44-05:00,single_300ms_ontime_delay_2_tone_Lab_3,3556,154,EXP8c_maintaskTrials_2_s_rv
pass,6345b7f49677d36bd07c5a10,EXP8c_JF,0,9077ab4ac2c6a1eaf3fb98f663c10d7b81a6cc9251094a2bb883f7723f6f0b08,2366.549044,TRUE,keypress,cat_catchRsp,1154,['Cat meowing'],choice-response,Cat meowing,63855a7052dc2c8cc811b3a4,2022-11-28 20:03:44-05:00,cat_meowing,3709,155,Catch_trials
pass,6345b7f49677d36bd07c5a10,EXP8c_JF,0,9077ab4ac2c6a1eaf3fb98f663c10d7b81a6cc9251094a2bb883f7723f6f0b08,2366.549044,FALSE,keypress,EXP8c_testRsp_rv,711,[],choice-response,Lap,63855a7052dc2c8cc811b3a4,2022-11-28 20:03:44-05:00,single_300ms_late_delay_2_tone_Lab_2,3709,156,EXP8c_maintaskTrials_2_s_rv
pass,6345b7f49677d36bd07c5a10,EXP8c_JF,0,9077ab4ac2c6a1eaf3fb98f663c10d7b81a6cc9251094a2bb883f7723f6f0b08,2366.549044,FALSE,keypress,EXP8c_testRsp_rv,597,[],choice-response,Lab,63855a7052dc2c8cc811b3a4,2022-11-28 20:03:44-05:00,single_300ms_early_delay_2_tone_Lab_5,3490,157,EXP8c_maintaskTrials_2_l_rv
pass,6345b7f49677d36bd07c5a10,EXP8c_JF,0,9077ab4ac2c6a1eaf3fb98f663c10d7b81a6cc9251094a2bb883f7723f6f0b08,2366.549044,FALSE,keypress,EXP8c_testRsp_rv,559,[],choice-response,Lap,63855a7052dc2c8cc811b3a4,2022-11-28 20:03:44-05:00,single_300ms_late_delay_2_tone_Lab_1,3573,158,EXP8c_maintaskTrials_2_s_rv
pass,6345b7f49677d36bd07c5a10,EXP8c_JF,0,9077ab4ac2c6a1eaf3fb98f663c10d7b81a6cc9251094a2bb883f7723f6f0b08,2366.549044,FALSE,keypress,EXP8c_testRsp_rv,596,[],choice-response,Lap,63855a7052dc2c8cc811b3a4,2022-11-28 20:03:44-05:00,single_300ms_early_delay_2_tone_Lab_4,3474,159,EXP8c_maintaskTrials_2_s_rv
pass,6345b7f49677d36bd07c5a10,EXP8c_JF,0,9077ab4ac2c6a1eaf3fb98f663c10d7b81a6cc9251094a2bb883f7723f6f0b08,2366.549044,FALSE,keypress,EXP8c_testRsp_rv,1004,[],choice-response,Lab,63855a7052dc2c8cc811b3a4,2022-11-28 20:03:44-05:00,single_300ms_ontime_delay_2_tone_Lab_4,3952,160,EXP8c_maintaskTrials_2_s_rv
pass,6345b7f49677d36bd07c5a10,EXP8c_JF,0,9077ab4ac2c6a1eaf3fb98f663c10d7b81a6cc9251094a2bb883f7723f6f0b08,2366.549044,FALSE,keypress,EXP8c_testRsp_rv,602,[],choice-response,Lap,63855a7052dc2c8cc811b3a4,2022-11-28 20:03:44-05:00,single_300ms_ontime_delay_2_tone_Lab_5,3616,161,EXP8c_maintaskTrials_2_l_rv
pass,6345b7f49677d36bd07c5a10,EXP8c_JF,0,9077ab4ac2c6a1eaf3fb98f663c10d7b81a6cc9251094a2bb883f7723f6f0b08,2366.549044,FALSE,keypress,EXP8c_testRsp_rv,903,[],choice-response,Lap,63855a7052dc2c8cc811b3a4,2022-11-28 20:03:44-05:00,single_300ms_early_delay_2_tone_Lab_3,3733,162,EXP8c_maintaskTrials_2_s_rv
pass,6345b7f49677d36bd07c5a10,EXP8c_JF,0,9077ab4ac2c6a1eaf3fb98f663c10d7b81a6cc9251094a2bb883f7723f6f0b08,2366.549044,FALSE,keypress,EXP8c_testRsp_rv,847,[],choice-response,Lab,63855a7052dc2c8cc811b3a4,2022-11-28 20:03:44-05:00,single_300ms_late_delay_2_tone_Lab_3,3876,163,EXP8c_maintaskTrials_2_s_rv
pass,6345b7f49677d36bd07c5a10,EXP8c_JF,0,9077ab4ac2c6a1eaf3fb98f663c10d7b81a6cc9251094a2bb883f7723f6f0b08,2366.549044,FALSE,keypress,EXP8c_testRsp_rv,746,[],choice-response,Lap,63855a7052dc2c8cc811b3a4,2022-11-28 20:03:44-05:00,single_300ms_late_delay_2_tone_Lab_8,3845,164,EXP8c_maintaskTrials_2_l_rv
pass,6345b7f49677d36bd07c5a10,EXP8c_JF,0,9077ab4ac2c6a1eaf3fb98f663c10d7b81a6cc9251094a2bb883f7723f6f0b08,2366.549044,FALSE,keypress,EXP8c_testRsp_rv,779,[],choice-response,Lap,63855a7052dc2c8cc811b3a4,2022-11-28 20:03:44-05:00,single_300ms_ontime_delay_2_tone_Lab_6,3740,165,EXP8c_maintaskTrials_2_l_rv
pass,6345b7f49677d36bd07c5a10,EXP8c_JF,0,9077ab4ac2c6a1eaf3fb98f663c10d7b81a6cc9251094a2bb883f7723f6f0b08,2366.549044,FALSE,keypress,EXP8c_testRsp_rv,531,[],choice-response,Lap,63855a7052dc2c8cc811b3a4,2022-11-28 20:03:44-05:00,single_300ms_ontime_delay_2_tone_Lab_2,3491,166,EXP8c_maintaskTrials_2_s_rv
pass,6345b7f49677d36bd07c5a10,EXP8c_JF,0,9077ab4ac2c6a1eaf3fb98f663c10d7b81a6cc9251094a2bb883f7723f6f0b08,2366.549044,TRUE,keypress,bird_catchRsp,799,['Bird singing'],choice-response,Bird singing,63855a7052dc2c8cc811b3a4,2022-11-28 20:03:44-05:00,songbird,3349,167,Catch_trials
pass,6345b7f49677d36bd07c5a10,EXP8c_JF,0,9077ab4ac2c6a1eaf3fb98f663c10d7b81a6cc9251094a2bb883f7723f6f0b08,2366.549044,FALSE,keypress,EXP8c_testRsp_rv,820,[],choice-response,Lab,63855a7052dc2c8cc811b3a4,2022-11-28 20:03:44-05:00,single_300ms_late_delay_2_tone_Lab_6,3925,168,EXP8c_maintaskTrials_2_l_rv
pass,6345b7f49677d36bd07c5a10,EXP8c_JF,0,9077ab4ac2c6a1eaf3fb98f663c10d7b81a6cc9251094a2bb883f7723f6f0b08,2366.549044,FALSE,keypress,EXP8c_testRsp_rv,1275,[],choice-response,Lab,63855a7052dc2c8cc811b3a4,2022-11-28 20:03:44-05:00,single_300ms_late_delay_2_tone_Lab_5,4345,169,EXP8c_maintaskTrials_2_l_rv
pass,6345b7f49677d36bd07c5a10,EXP8c_JF,0,9077ab4ac2c6a1eaf3fb98f663c10d7b81a6cc9251094a2bb883f7723f6f0b08,2366.549044,FALSE,keypress,EXP8c_testRsp_rv,743,[],choice-response,Lab,63855a7052dc2c8cc811b3a4,2022-11-28 20:03:44-05:00,single_300ms_ontime_delay_2_tone_Lab_8,3788,170,EXP8c_maintaskTrials_2_l_rv
pass,6345b7f49677d36bd07c5a10,EXP8c_JF,0,9077ab4ac2c6a1eaf3fb98f663c10d7b81a6cc9251094a2bb883f7723f6f0b08,2366.549044,FALSE,keypress,EXP8c_testRsp_rv,397,[],choice-response,Lap,63855a7052dc2c8cc811b3a4,2022-11-28 20:03:44-05:00,single_300ms_early_delay_2_tone_Lab_1,3200,171,EXP8c_maintaskTrials_2_s_rv
pass,6345b7f49677d36bd07c5a10,EXP8c_JF,0,9077ab4ac2c6a1eaf3fb98f663c10d7b81a6cc9251094a2bb883f7723f6f0b08,2366.549044,FALSE,keypress,EXP8c_testRsp_rv,688,[],choice-response,Lap,63855a7052dc2c8cc811b3a4,2022-11-28 20:03:44-05:00,single_300ms_early_delay_2_tone_Lab_2,3516,172,EXP8c_maintaskTrials_2_s_rv
pass,6345b7f49677d36bd07c5a10,EXP8c_JF,0,9077ab4ac2c6a1eaf3fb98f663c10d7b81a6cc9251094a2bb883f7723f6f0b08,2366.549044,FALSE,keypress,EXP8c_testRsp_rv,1102,[],choice-response,Lab,63855a7052dc2c8cc811b3a4,2022-11-28 20:03:44-05:00,single_300ms_late_delay_2_tone_Lab_7,4218,173,EXP8c_maintaskTrials_2_l_rv
pass,6345b7f49677d36bd07c5a10,EXP8c_JF,0,9077ab4ac2c6a1eaf3fb98f663c10d7b81a6cc9251094a2bb883f7723f6f0b08,2366.549044,FALSE,keypress,EXP8c_testRsp_rv,637,[],choice-response,Lap,63855a7052dc2c8cc811b3a4,2022-11-28 20:03:44-05:00,single_300ms_ontime_delay_2_tone_Lab_3,3547,174,EXP8c_maintaskTrials_2_s_rv
pass,6345b7f49677d36bd07c5a10,EXP8c_JF,0,9077ab4ac2c6a1eaf3fb98f663c10d7b81a6cc9251094a2bb883f7723f6f0b08,2366.549044,FALSE,keypress,EXP8c_testRsp_rv,577,[],choice-response,Lab,63855a7052dc2c8cc811b3a4,2022-11-28 20:03:44-05:00,single_300ms_early_delay_2_tone_Lab_8,3526,175,EXP8c_maintaskTrials_2_l_rv
pass,6345b7f49677d36bd07c5a10,EXP8c_JF,0,9077ab4ac2c6a1eaf3fb98f663c10d7b81a6cc9251094a2bb883f7723f6f0b08,2366.549044,FALSE,keypress,EXP8c_testRsp_rv,1367,[],choice-response,Lap,63855a7052dc2c8cc811b3a4,2022-11-28 20:03:44-05:00,single_300ms_late_delay_2_tone_Lab_5,4448,176,EXP8c_maintaskTrials_2_l_rv
pass,6345b7f49677d36bd07c5a10,EXP8c_JF,0,9077ab4ac2c6a1eaf3fb98f663c10d7b81a6cc9251094a2bb883f7723f6f0b08,2366.549044,FALSE,keypress,EXP8c_testRsp_rv,336,[],choice-response,Lab,63855a7052dc2c8cc811b3a4,2022-11-28 20:03:44-05:00,single_300ms_late_delay_2_tone_Lab_6,3430,177,EXP8c_maintaskTrials_2_l_rv
pass,6345b7f49677d36bd07c5a10,EXP8c_JF,0,9077ab4ac2c6a1eaf3fb98f663c10d7b81a6cc9251094a2bb883f7723f6f0b08,2366.549044,FALSE,keypress,EXP8c_testRsp_rv,531,[],choice-response,Lab,63855a7052dc2c8cc811b3a4,2022-11-28 20:03:44-05:00,single_300ms_early_delay_2_tone_Lab_5,3429,178,EXP8c_maintaskTrials_2_l_rv
pass,6345b7f49677d36bd07c5a10,EXP8c_JF,0,9077ab4ac2c6a1eaf3fb98f663c10d7b81a6cc9251094a2bb883f7723f6f0b08,2366.549044,TRUE,keypress,cat_catchRsp,858,['Cat meowing'],choice-response,Cat meowing,63855a7052dc2c8cc811b3a4,2022-11-28 20:03:44-05:00,cat_meowing,3404,179,Catch_trials
pass,6345b7f49677d36bd07c5a10,EXP8c_JF,0,9077ab4ac2c6a1eaf3fb98f663c10d7b81a6cc9251094a2bb883f7723f6f0b08,2366.549044,FALSE,keypress,EXP8c_testRsp_rv,644,[],choice-response,Lab,63855a7052dc2c8cc811b3a4,2022-11-28 20:03:44-05:00,single_300ms_late_delay_2_tone_Lab_4,3723,180,EXP8c_maintaskTrials_2_s_rv
pass,6345b7f49677d36bd07c5a10,EXP8c_JF,0,9077ab4ac2c6a1eaf3fb98f663c10d7b81a6cc9251094a2bb883f7723f6f0b08,2366.549044,FALSE,keypress,EXP8c_testRsp_rv,639,[],choice-response,Lap,63855a7052dc2c8cc811b3a4,2022-11-28 20:03:44-05:00,single_300ms_early_delay_2_tone_Lab_6,3550,181,EXP8c_maintaskTrials_2_l_rv
pass,6345b7f49677d36bd07c5a10,EXP8c_JF,0,9077ab4ac2c6a1eaf3fb98f663c10d7b81a6cc9251094a2bb883f7723f6f0b08,2366.549044,FALSE,keypress,EXP8c_testRsp_rv,446,[],choice-response,Lab,63855a7052dc2c8cc811b3a4,2022-11-28 20:03:44-05:00,single_300ms_late_delay_2_tone_Lab_7,3549,182,EXP8c_maintaskTrials_2_l_rv
pass,6345b7f49677d36bd07c5a10,EXP8c_JF,0,9077ab4ac2c6a1eaf3fb98f663c10d7b81a6cc9251094a2bb883f7723f6f0b08,2366.549044,FALSE,keypress,EXP8c_testRsp_rv,674,[],choice-response,Lab,63855a7052dc2c8cc811b3a4,2022-11-28 20:03:44-05:00,single_300ms_ontime_delay_2_tone_Lab_7,3712,183,EXP8c_maintaskTrials_2_l_rv
pass,6345b7f49677d36bd07c5a10,EXP8c_JF,0,9077ab4ac2c6a1eaf3fb98f663c10d7b81a6cc9251094a2bb883f7723f6f0b08,2366.549044,FALSE,keypress,EXP8c_testRsp_rv,532,[],choice-response,Lap,63855a7052dc2c8cc811b3a4,2022-11-28 20:03:44-05:00,single_300ms_ontime_delay_2_tone_Lab_1,3430,184,EXP8c_maintaskTrials_2_s_rv
pass,6345b7f49677d36bd07c5a10,EXP8c_JF,0,9077ab4ac2c6a1eaf3fb98f663c10d7b81a6cc9251094a2bb883f7723f6f0b08,2366.549044,FALSE,keypress,EXP8c_testRsp_rv,911,[],choice-response,Lap,63855a7052dc2c8cc811b3a4,2022-11-28 20:03:44-05:00,single_300ms_early_delay_2_tone_Lab_3,3731,185,EXP8c_maintaskTrials_2_s_rv
pass,6345b7f49677d36bd07c5a10,EXP8c_JF,0,9077ab4ac2c6a1eaf3fb98f663c10d7b81a6cc9251094a2bb883f7723f6f0b08,2366.549044,FALSE,keypress,EXP8c_testRsp_rv,1055,[],choice-response,Lap,63855a7052dc2c8cc811b3a4,2022-11-28 20:03:44-05:00,single_300ms_late_delay_2_tone_Lab_3,4131,186,EXP8c_maintaskTrials_2_s_rv
pass,6345b7f49677d36bd07c5a10,EXP8c_JF,0,9077ab4ac2c6a1eaf3fb98f663c10d7b81a6cc9251094a2bb883f7723f6f0b08,2366.549044,FALSE,keypress,EXP8c_testRsp_rv,335,[],choice-response,Lab,63855a7052dc2c8cc811b3a4,2022-11-28 20:03:44-05:00,single_300ms_ontime_delay_2_tone_Lab_6,3304,187,EXP8c_maintaskTrials_2_l_rv
pass,6345b7f49677d36bd07c5a10,EXP8c_JF,0,9077ab4ac2c6a1eaf3fb98f663c10d7b81a6cc9251094a2bb883f7723f6f0b08,2366.549044,FALSE,keypress,EXP8c_testRsp_rv,469,[],choice-response,Lab,63855a7052dc2c8cc811b3a4,2022-11-28 20:03:44-05:00,single_300ms_ontime_delay_2_tone_Lab_5,3421,188,EXP8c_maintaskTrials_2_l_rv
pass,6345b7f49677d36bd07c5a10,EXP8c_JF,0,9077ab4ac2c6a1eaf3fb98f663c10d7b81a6cc9251094a2bb883f7723f6f0b08,2366.549044,FALSE,keypress,EXP8c_testRsp_rv,374,[],choice-response,Lab,63855a7052dc2c8cc811b3a4,2022-11-28 20:03:44-05:00,single_300ms_ontime_delay_2_tone_Lab_8,3425,189,EXP8c_maintaskTrials_2_l_rv
pass,6345b7f49677d36bd07c5a10,EXP8c_JF,0,9077ab4ac2c6a1eaf3fb98f663c10d7b81a6cc9251094a2bb883f7723f6f0b08,2366.549044,FALSE,keypress,EXP8c_testRsp_rv,361,[],choice-response,Lab,63855a7052dc2c8cc811b3a4,2022-11-28 20:03:44-05:00,single_300ms_late_delay_2_tone_Lab_8,3475,190,EXP8c_maintaskTrials_2_l_rv
pass,6345b7f49677d36bd07c5a10,EXP8c_JF,0,9077ab4ac2c6a1eaf3fb98f663c10d7b81a6cc9251094a2bb883f7723f6f0b08,2366.549044,TRUE,keypress,bird_catchRsp,1852,['Bird singing'],choice-response,Bird singing,63855a7052dc2c8cc811b3a4,2022-11-28 20:03:44-05:00,songbird,4402,191,Catch_trials
pass,6345b7f49677d36bd07c5a10,EXP8c_JF,0,9077ab4ac2c6a1eaf3fb98f663c10d7b81a6cc9251094a2bb883f7723f6f0b08,2366.549044,FALSE,keypress,EXP8c_testRsp_rv,764,[],choice-response,Lap,63855a7052dc2c8cc811b3a4,2022-11-28 20:03:44-05:00,single_300ms_ontime_delay_2_tone_Lab_2,3710,192,EXP8c_maintaskTrials_2_s_rv
pass,6345b7f49677d36bd07c5a10,EXP8c_JF,0,9077ab4ac2c6a1eaf3fb98f663c10d7b81a6cc9251094a2bb883f7723f6f0b08,2366.549044,FALSE,keypress,EXP8c_testRsp_rv,1664,[],choice-response,Lab,63855a7052dc2c8cc811b3a4,2022-11-28 20:03:44-05:00,single_300ms_ontime_delay_2_tone_Lab_4,4630,193,EXP8c_maintaskTrials_2_s_rv
pass,6345b7f49677d36bd07c5a10,EXP8c_JF,0,9077ab4ac2c6a1eaf3fb98f663c10d7b81a6cc9251094a2bb883f7723f6f0b08,2366.549044,FALSE,keypress,EXP8c_testRsp_rv,883,[],choice-response,Lab,63855a7052dc2c8cc811b3a4,2022-11-28 20:03:44-05:00,single_300ms_early_delay_2_tone_Lab_7,3811,194,EXP8c_maintaskTrials_2_l_rv
pass,6345b7f49677d36bd07c5a10,EXP8c_JF,0,9077ab4ac2c6a1eaf3fb98f663c10d7b81a6cc9251094a2bb883f7723f6f0b08,2366.549044,FALSE,keypress,EXP8c_testRsp_rv,381,[],choice-response,Lap,63855a7052dc2c8cc811b3a4,2022-11-28 20:03:44-05:00,single_300ms_early_delay_2_tone_Lab_1,3188,195,EXP8c_maintaskTrials_2_s_rv
pass,6345b7f49677d36bd07c5a10,EXP8c_JF,0,9077ab4ac2c6a1eaf3fb98f663c10d7b81a6cc9251094a2bb883f7723f6f0b08,2366.549044,FALSE,keypress,EXP8c_testRsp_rv,591,[],choice-response,Lap,63855a7052dc2c8cc811b3a4,2022-11-28 20:03:44-05:00,single_300ms_early_delay_2_tone_Lab_4,3468,196,EXP8c_maintaskTrials_2_s_rv
pass,6345b7f49677d36bd07c5a10,EXP8c_JF,0,9077ab4ac2c6a1eaf3fb98f663c10d7b81a6cc9251094a2bb883f7723f6f0b08,2366.549044,FALSE,keypress,EXP8c_testRsp_rv,512,[],choice-response,Lab,63855a7052dc2c8cc811b3a4,2022-11-28 20:03:44-05:00,single_300ms_early_delay_2_tone_Lab_2,3349,197,EXP8c_maintaskTrials_2_s_rv
pass,6345b7f49677d36bd07c5a10,EXP8c_JF,0,9077ab4ac2c6a1eaf3fb98f663c10d7b81a6cc9251094a2bb883f7723f6f0b08,2366.549044,FALSE,keypress,EXP8c_testRsp_rv,692,[],choice-response,Lap,63855a7052dc2c8cc811b3a4,2022-11-28 20:03:44-05:00,single_300ms_late_delay_2_tone_Lab_2,3696,198,EXP8c_maintaskTrials_2_s_rv
pass,6345b7f49677d36bd07c5a10,EXP8c_JF,0,9077ab4ac2c6a1eaf3fb98f663c10d7b81a6cc9251094a2bb883f7723f6f0b08,2366.549044,FALSE,keypress,EXP8c_testRsp_rv,408,[],choice-response,Lap,63855a7052dc2c8cc811b3a4,2022-11-28 20:03:44-05:00,single_300ms_late_delay_2_tone_Lab_1,3394,199,EXP8c_maintaskTrials_2_s_rv
pass,6345b7f49677d36bd07c5a10,EXP8c_JF,0,9077ab4ac2c6a1eaf3fb98f663c10d7b81a6cc9251094a2bb883f7723f6f0b08,2366.549044,FALSE,keypress,EXP8c_testRsp_rv,565,[],choice-response,Lap,63855a7052dc2c8cc811b3a4,2022-11-28 20:03:44-05:00,single_300ms_ontime_delay_2_tone_Lab_1,3451,200,EXP8c_maintaskTrials_2_s_rv
pass,6345b7f49677d36bd07c5a10,EXP8c_JF,0,9077ab4ac2c6a1eaf3fb98f663c10d7b81a6cc9251094a2bb883f7723f6f0b08,2366.549044,FALSE,keypress,EXP8c_testRsp_rv,916,[],choice-response,Lab,63855a7052dc2c8cc811b3a4,2022-11-28 20:03:44-05:00,single_300ms_late_delay_2_tone_Lab_5,4027,201,EXP8c_maintaskTrials_2_l_rv
pass,6345b7f49677d36bd07c5a10,EXP8c_JF,0,9077ab4ac2c6a1eaf3fb98f663c10d7b81a6cc9251094a2bb883f7723f6f0b08,2366.549044,FALSE,keypress,EXP8c_testRsp_rv,985,[],choice-response,Lab,63855a7052dc2c8cc811b3a4,2022-11-28 20:03:44-05:00,single_300ms_ontime_delay_2_tone_Lab_8,4065,202,EXP8c_maintaskTrials_2_l_rv
pass,6345b7f49677d36bd07c5a10,EXP8c_JF,0,9077ab4ac2c6a1eaf3fb98f663c10d7b81a6cc9251094a2bb883f7723f6f0b08,2366.549044,TRUE,keypress,cat_catchRsp,956,['Cat meowing'],choice-response,Cat meowing,63855a7052dc2c8cc811b3a4,2022-11-28 20:03:44-05:00,cat_meowing,3492,203,Catch_trials
pass,6345b7f49677d36bd07c5a10,EXP8c_JF,0,9077ab4ac2c6a1eaf3fb98f663c10d7b81a6cc9251094a2bb883f7723f6f0b08,2366.549044,FALSE,keypress,EXP8c_testRsp_rv,1266,[],choice-response,Lab,63855a7052dc2c8cc811b3a4,2022-11-28 20:03:44-05:00,single_300ms_late_delay_2_tone_Lab_7,4360,204,EXP8c_maintaskTrials_2_l_rv
pass,6345b7f49677d36bd07c5a10,EXP8c_JF,0,9077ab4ac2c6a1eaf3fb98f663c10d7b81a6cc9251094a2bb883f7723f6f0b08,2366.549044,FALSE,keypress,EXP8c_testRsp_rv,528,[],choice-response,Lap,63855a7052dc2c8cc811b3a4,2022-11-28 20:03:44-05:00,single_300ms_early_delay_2_tone_Lab_1,3313,205,EXP8c_maintaskTrials_2_s_rv
pass,6345b7f49677d36bd07c5a10,EXP8c_JF,0,9077ab4ac2c6a1eaf3fb98f663c10d7b81a6cc9251094a2bb883f7723f6f0b08,2366.549044,FALSE,keypress,EXP8c_testRsp_rv,1239,[],choice-response,Lab,63855a7052dc2c8cc811b3a4,2022-11-28 20:03:44-05:00,single_300ms_ontime_delay_2_tone_Lab_6,4201,206,EXP8c_maintaskTrials_2_l_rv
pass,6345b7f49677d36bd07c5a10,EXP8c_JF,0,9077ab4ac2c6a1eaf3fb98f663c10d7b81a6cc9251094a2bb883f7723f6f0b08,2366.549044,FALSE,keypress,EXP8c_testRsp_rv,974,[],choice-response,Lap,63855a7052dc2c8cc811b3a4,2022-11-28 20:03:44-05:00,single_300ms_late_delay_2_tone_Lab_4,3991,207,EXP8c_maintaskTrials_2_s_rv
pass,6345b7f49677d36bd07c5a10,EXP8c_JF,0,9077ab4ac2c6a1eaf3fb98f663c10d7b81a6cc9251094a2bb883f7723f6f0b08,2366.549044,FALSE,keypress,EXP8c_testRsp_rv,1382,[],choice-response,Lap,63855a7052dc2c8cc811b3a4,2022-11-28 20:03:44-05:00,single_300ms_early_delay_2_tone_Lab_4,4263,208,EXP8c_maintaskTrials_2_s_rv
pass,6345b7f49677d36bd07c5a10,EXP8c_JF,0,9077ab4ac2c6a1eaf3fb98f663c10d7b81a6cc9251094a2bb883f7723f6f0b08,2366.549044,FALSE,keypress,EXP8c_testRsp_rv,544,[],choice-response,Lab,63855a7052dc2c8cc811b3a4,2022-11-28 20:03:44-05:00,single_300ms_early_delay_2_tone_Lab_8,3471,209,EXP8c_maintaskTrials_2_l_rv
pass,6345b7f49677d36bd07c5a10,EXP8c_JF,0,9077ab4ac2c6a1eaf3fb98f663c10d7b81a6cc9251094a2bb883f7723f6f0b08,2366.549044,FALSE,keypress,EXP8c_testRsp_rv,1203,[],choice-response,Lap,63855a7052dc2c8cc811b3a4,2022-11-28 20:03:44-05:00,single_300ms_late_delay_2_tone_Lab_1,4176,210,EXP8c_maintaskTrials_2_s_rv
pass,6345b7f49677d36bd07c5a10,EXP8c_JF,0,9077ab4ac2c6a1eaf3fb98f663c10d7b81a6cc9251094a2bb883f7723f6f0b08,2366.549044,FALSE,keypress,EXP8c_testRsp_rv,845,[],choice-response,Lab,63855a7052dc2c8cc811b3a4,2022-11-28 20:03:44-05:00,single_300ms_ontime_delay_2_tone_Lab_5,3795,211,EXP8c_maintaskTrials_2_l_rv
pass,6345b7f49677d36bd07c5a10,EXP8c_JF,0,9077ab4ac2c6a1eaf3fb98f663c10d7b81a6cc9251094a2bb883f7723f6f0b08,2366.549044,FALSE,keypress,EXP8c_testRsp_rv,543,[],choice-response,Lap,63855a7052dc2c8cc811b3a4,2022-11-28 20:03:44-05:00,single_300ms_ontime_delay_2_tone_Lab_4,3507,212,EXP8c_maintaskTrials_2_s_rv
pass,6345b7f49677d36bd07c5a10,EXP8c_JF,0,9077ab4ac2c6a1eaf3fb98f663c10d7b81a6cc9251094a2bb883f7723f6f0b08,2366.549044,FALSE,keypress,EXP8c_testRsp_rv,1187,[],choice-response,Lab,63855a7052dc2c8cc811b3a4,2022-11-28 20:03:44-05:00,single_300ms_late_delay_2_tone_Lab_6,4273,213,EXP8c_maintaskTrials_2_l_rv
pass,6345b7f49677d36bd07c5a10,EXP8c_JF,0,9077ab4ac2c6a1eaf3fb98f663c10d7b81a6cc9251094a2bb883f7723f6f0b08,2366.549044,FALSE,keypress,EXP8c_testRsp_rv,856,[],choice-response,Lab,63855a7052dc2c8cc811b3a4,2022-11-28 20:03:44-05:00,single_300ms_late_delay_2_tone_Lab_8,3951,214,EXP8c_maintaskTrials_2_l_rv
pass,6345b7f49677d36bd07c5a10,EXP8c_JF,0,9077ab4ac2c6a1eaf3fb98f663c10d7b81a6cc9251094a2bb883f7723f6f0b08,2366.549044,TRUE,keypress,bird_catchRsp,1904,['Bird singing'],choice-response,Bird singing,63855a7052dc2c8cc811b3a4,2022-11-28 20:03:44-05:00,songbird,4443,215,Catch_trials
pass,6345b7f49677d36bd07c5a10,EXP8c_JF,0,9077ab4ac2c6a1eaf3fb98f663c10d7b81a6cc9251094a2bb883f7723f6f0b08,2366.549044,FALSE,keypress,EXP8c_testRsp_rv,1472,[],choice-response,Lap,63855a7052dc2c8cc811b3a4,2022-11-28 20:03:44-05:00,single_300ms_early_delay_2_tone_Lab_3,4308,216,EXP8c_maintaskTrials_2_s_rv
pass,6345b7f49677d36bd07c5a10,EXP8c_JF,0,9077ab4ac2c6a1eaf3fb98f663c10d7b81a6cc9251094a2bb883f7723f6f0b08,2366.549044,FALSE,keypress,EXP8c_testRsp_rv,1651,[],choice-response,Lap,63855a7052dc2c8cc811b3a4,2022-11-28 20:03:44-05:00,single_300ms_ontime_delay_2_tone_Lab_3,4588,217,EXP8c_maintaskTrials_2_s_rv
pass,6345b7f49677d36bd07c5a10,EXP8c_JF,0,9077ab4ac2c6a1eaf3fb98f663c10d7b81a6cc9251094a2bb883f7723f6f0b08,2366.549044,FALSE,keypress,EXP8c_testRsp_rv,3782,[],choice-response,Lab,63855a7052dc2c8cc811b3a4,2022-11-28 20:03:44-05:00,single_300ms_ontime_delay_2_tone_Lab_2,6753,218,EXP8c_maintaskTrials_2_s_rv
pass,6345b7f49677d36bd07c5a10,EXP8c_JF,0,9077ab4ac2c6a1eaf3fb98f663c10d7b81a6cc9251094a2bb883f7723f6f0b08,2366.549044,FALSE,keypress,EXP8c_testRsp_rv,903,[],choice-response,Lab,63855a7052dc2c8cc811b3a4,2022-11-28 20:03:44-05:00,single_300ms_early_delay_2_tone_Lab_2,3732,219,EXP8c_maintaskTrials_2_s_rv
pass,6345b7f49677d36bd07c5a10,EXP8c_JF,0,9077ab4ac2c6a1eaf3fb98f663c10d7b81a6cc9251094a2bb883f7723f6f0b08,2366.549044,FALSE,keypress,EXP8c_testRsp_rv,545,[],choice-response,Lab,63855a7052dc2c8cc811b3a4,2022-11-28 20:03:44-05:00,single_300ms_early_delay_2_tone_Lab_6,3454,220,EXP8c_maintaskTrials_2_l_rv
pass,6345b7f49677d36bd07c5a10,EXP8c_JF,0,9077ab4ac2c6a1eaf3fb98f663c10d7b81a6cc9251094a2bb883f7723f6f0b08,2366.549044,FALSE,keypress,EXP8c_testRsp_rv,1008,[],choice-response,Lab,63855a7052dc2c8cc811b3a4,2022-11-28 20:03:44-05:00,single_300ms_early_delay_2_tone_Lab_7,3912,221,EXP8c_maintaskTrials_2_l_rv
pass,6345b7f49677d36bd07c5a10,EXP8c_JF,0,9077ab4ac2c6a1eaf3fb98f663c10d7b81a6cc9251094a2bb883f7723f6f0b08,2366.549044,FALSE,keypress,EXP8c_testRsp_rv,808,[],choice-response,Lap,63855a7052dc2c8cc811b3a4,2022-11-28 20:03:44-05:00,single_300ms_late_delay_2_tone_Lab_2,3799,222,EXP8c_maintaskTrials_2_s_rv
pass,6345b7f49677d36bd07c5a10,EXP8c_JF,0,9077ab4ac2c6a1eaf3fb98f663c10d7b81a6cc9251094a2bb883f7723f6f0b08,2366.549044,FALSE,keypress,EXP8c_testRsp_rv,1223,[],choice-response,Lap,63855a7052dc2c8cc811b3a4,2022-11-28 20:03:44-05:00,single_300ms_late_delay_2_tone_Lab_3,4279,223,EXP8c_maintaskTrials_2_s_rv
pass,6345b7f49677d36bd07c5a10,EXP8c_JF,0,9077ab4ac2c6a1eaf3fb98f663c10d7b81a6cc9251094a2bb883f7723f6f0b08,2366.549044,FALSE,keypress,EXP8c_testRsp_rv,655,[],choice-response,Lab,63855a7052dc2c8cc811b3a4,2022-11-28 20:03:44-05:00,single_300ms_ontime_delay_2_tone_Lab_7,3685,224,EXP8c_maintaskTrials_2_l_rv
pass,6345b7f49677d36bd07c5a10,EXP8c_JF,0,9077ab4ac2c6a1eaf3fb98f663c10d7b81a6cc9251094a2bb883f7723f6f0b08,2366.549044,FALSE,keypress,EXP8c_testRsp_rv,639,[],choice-response,Lap,63855a7052dc2c8cc811b3a4,2022-11-28 20:03:44-05:00,single_300ms_early_delay_2_tone_Lab_5,3542,225,EXP8c_maintaskTrials_2_l_rv
pass,6345b7f49677d36bd07c5a10,EXP8c_JF,0,9077ab4ac2c6a1eaf3fb98f663c10d7b81a6cc9251094a2bb883f7723f6f0b08,2366.549044,FALSE,keypress,EXP8c_testRsp_rv,710,[],choice-response,Lap,63855a7052dc2c8cc811b3a4,2022-11-28 20:03:44-05:00,single_300ms_late_delay_2_tone_Lab_3,3713,226,EXP8c_maintaskTrials_2_s_rv
pass,6345b7f49677d36bd07c5a10,EXP8c_JF,0,9077ab4ac2c6a1eaf3fb98f663c10d7b81a6cc9251094a2bb883f7723f6f0b08,2366.549044,TRUE,keypress,cat_catchRsp,2191,['Cat meowing'],choice-response,Cat meowing,63855a7052dc2c8cc811b3a4,2022-11-28 20:03:44-05:00,cat_meowing,4830,227,Catch_trials
pass,6345b7f49677d36bd07c5a10,EXP8c_JF,0,9077ab4ac2c6a1eaf3fb98f663c10d7b81a6cc9251094a2bb883f7723f6f0b08,2366.549044,FALSE,keypress,EXP8c_testRsp_rv,2217,[],choice-response,Lab,63855a7052dc2c8cc811b3a4,2022-11-28 20:03:44-05:00,single_300ms_early_delay_2_tone_Lab_8,5144,228,EXP8c_maintaskTrials_2_l_rv
pass,6345b7f49677d36bd07c5a10,EXP8c_JF,0,9077ab4ac2c6a1eaf3fb98f663c10d7b81a6cc9251094a2bb883f7723f6f0b08,2366.549044,FALSE,keypress,EXP8c_testRsp_rv,571,[],choice-response,Lab,63855a7052dc2c8cc811b3a4,2022-11-28 20:03:44-05:00,single_300ms_early_delay_2_tone_Lab_7,3474,229,EXP8c_maintaskTrials_2_l_rv
pass,6345b7f49677d36bd07c5a10,EXP8c_JF,0,9077ab4ac2c6a1eaf3fb98f663c10d7b81a6cc9251094a2bb883f7723f6f0b08,2366.549044,FALSE,keypress,EXP8c_testRsp_rv,728,[],choice-response,Lap,63855a7052dc2c8cc811b3a4,2022-11-28 20:03:44-05:00,single_300ms_early_delay_2_tone_Lab_4,3596,230,EXP8c_maintaskTrials_2_s_rv
pass,6345b7f49677d36bd07c5a10,EXP8c_JF,0,9077ab4ac2c6a1eaf3fb98f663c10d7b81a6cc9251094a2bb883f7723f6f0b08,2366.549044,FALSE,keypress,EXP8c_testRsp_rv,416,[],choice-response,Lab,63855a7052dc2c8cc811b3a4,2022-11-28 20:03:44-05:00,single_300ms_ontime_delay_2_tone_Lab_6,3438,231,EXP8c_maintaskTrials_2_l_rv
pass,6345b7f49677d36bd07c5a10,EXP8c_JF,0,9077ab4ac2c6a1eaf3fb98f663c10d7b81a6cc9251094a2bb883f7723f6f0b08,2366.549044,FALSE,keypress,EXP8c_testRsp_rv,539,[],choice-response,Lap,63855a7052dc2c8cc811b3a4,2022-11-28 20:03:44-05:00,single_300ms_late_delay_2_tone_Lab_4,3597,232,EXP8c_maintaskTrials_2_s_rv
pass,6345b7f49677d36bd07c5a10,EXP8c_JF,0,9077ab4ac2c6a1eaf3fb98f663c10d7b81a6cc9251094a2bb883f7723f6f0b08,2366.549044,FALSE,keypress,EXP8c_testRsp_rv,477,[],choice-response,Lap,63855a7052dc2c8cc811b3a4,2022-11-28 20:03:44-05:00,single_300ms_early_delay_2_tone_Lab_1,3260,233,EXP8c_maintaskTrials_2_s_rv
pass,6345b7f49677d36bd07c5a10,EXP8c_JF,0,9077ab4ac2c6a1eaf3fb98f663c10d7b81a6cc9251094a2bb883f7723f6f0b08,2366.549044,FALSE,keypress,EXP8c_testRsp_rv,533,[],choice-response,Lap,63855a7052dc2c8cc811b3a4,2022-11-28 20:03:44-05:00,single_300ms_ontime_delay_2_tone_Lab_3,3483,234,EXP8c_maintaskTrials_2_s_rv
pass,6345b7f49677d36bd07c5a10,EXP8c_JF,0,9077ab4ac2c6a1eaf3fb98f663c10d7b81a6cc9251094a2bb883f7723f6f0b08,2366.549044,FALSE,keypress,EXP8c_testRsp_rv,315,[],choice-response,Lab,63855a7052dc2c8cc811b3a4,2022-11-28 20:03:44-05:00,single_300ms_early_delay_2_tone_Lab_6,3202,235,EXP8c_maintaskTrials_2_l_rv
pass,6345b7f49677d36bd07c5a10,EXP8c_JF,0,9077ab4ac2c6a1eaf3fb98f663c10d7b81a6cc9251094a2bb883f7723f6f0b08,2366.549044,FALSE,keypress,EXP8c_testRsp_rv,383,[],choice-response,Lap,63855a7052dc2c8cc811b3a4,2022-11-28 20:03:44-05:00,single_300ms_late_delay_2_tone_Lab_1,3363,236,EXP8c_maintaskTrials_2_s_rv
pass,6345b7f49677d36bd07c5a10,EXP8c_JF,0,9077ab4ac2c6a1eaf3fb98f663c10d7b81a6cc9251094a2bb883f7723f6f0b08,2366.549044,FALSE,keypress,EXP8c_testRsp_rv,1062,[],choice-response,Lab,63855a7052dc2c8cc811b3a4,2022-11-28 20:03:44-05:00,single_300ms_early_delay_2_tone_Lab_3,3907,237,EXP8c_maintaskTrials_2_s_rv
pass,6345b7f49677d36bd07c5a10,EXP8c_JF,0,9077ab4ac2c6a1eaf3fb98f663c10d7b81a6cc9251094a2bb883f7723f6f0b08,2366.549044,FALSE,keypress,EXP8c_testRsp_rv,557,[],choice-response,Lab,63855a7052dc2c8cc811b3a4,2022-11-28 20:03:44-05:00,single_300ms_ontime_delay_2_tone_Lab_7,3559,238,EXP8c_maintaskTrials_2_l_rv
pass,6345b7f49677d36bd07c5a10,EXP8c_JF,0,9077ab4ac2c6a1eaf3fb98f663c10d7b81a6cc9251094a2bb883f7723f6f0b08,2366.549044,TRUE,keypress,bird_catchRsp,2554,['Bird singing'],choice-response,Bird singing,63855a7052dc2c8cc811b3a4,2022-11-28 20:03:44-05:00,songbird,5099,239,Catch_trials
pass,6345b7f49677d36bd07c5a10,EXP8c_JF,0,9077ab4ac2c6a1eaf3fb98f663c10d7b81a6cc9251094a2bb883f7723f6f0b08,2366.549044,FALSE,keypress,EXP8c_testRsp_rv,1694,[],choice-response,Lap,63855a7052dc2c8cc811b3a4,2022-11-28 20:03:44-05:00,single_300ms_ontime_delay_2_tone_Lab_1,4610,240,EXP8c_maintaskTrials_2_s_rv
pass,6345b7f49677d36bd07c5a10,EXP8c_JF,0,9077ab4ac2c6a1eaf3fb98f663c10d7b81a6cc9251094a2bb883f7723f6f0b08,2366.549044,FALSE,keypress,EXP8c_testRsp_rv,1508,[],choice-response,Lab,63855a7052dc2c8cc811b3a4,2022-11-28 20:03:44-05:00,single_300ms_ontime_delay_2_tone_Lab_4,4454,241,EXP8c_maintaskTrials_2_s_rv
pass,6345b7f49677d36bd07c5a10,EXP8c_JF,0,9077ab4ac2c6a1eaf3fb98f663c10d7b81a6cc9251094a2bb883f7723f6f0b08,2366.549044,FALSE,keypress,EXP8c_testRsp_rv,1072,[],choice-response,Lab,63855a7052dc2c8cc811b3a4,2022-11-28 20:03:44-05:00,single_300ms_late_delay_2_tone_Lab_2,4072,242,EXP8c_maintaskTrials_2_s_rv
pass,6345b7f49677d36bd07c5a10,EXP8c_JF,0,9077ab4ac2c6a1eaf3fb98f663c10d7b81a6cc9251094a2bb883f7723f6f0b08,2366.549044,FALSE,keypress,EXP8c_testRsp_rv,558,[],choice-response,Lab,63855a7052dc2c8cc811b3a4,2022-11-28 20:03:44-05:00,single_300ms_ontime_delay_2_tone_Lab_8,3598,243,EXP8c_maintaskTrials_2_l_rv
pass,6345b7f49677d36bd07c5a10,EXP8c_JF,0,9077ab4ac2c6a1eaf3fb98f663c10d7b81a6cc9251094a2bb883f7723f6f0b08,2366.549044,FALSE,keypress,EXP8c_testRsp_rv,659,[],choice-response,Lap,63855a7052dc2c8cc811b3a4,2022-11-28 20:03:44-05:00,single_300ms_late_delay_2_tone_Lab_8,3761,244,EXP8c_maintaskTrials_2_l_rv
pass,6345b7f49677d36bd07c5a10,EXP8c_JF,0,9077ab4ac2c6a1eaf3fb98f663c10d7b81a6cc9251094a2bb883f7723f6f0b08,2366.549044,FALSE,keypress,EXP8c_testRsp_rv,730,[],choice-response,Lab,63855a7052dc2c8cc811b3a4,2022-11-28 20:03:44-05:00,single_300ms_early_delay_2_tone_Lab_2,3611,245,EXP8c_maintaskTrials_2_s_rv
pass,6345b7f49677d36bd07c5a10,EXP8c_JF,0,9077ab4ac2c6a1eaf3fb98f663c10d7b81a6cc9251094a2bb883f7723f6f0b08,2366.549044,FALSE,keypress,EXP8c_testRsp_rv,478,[],choice-response,Lab,63855a7052dc2c8cc811b3a4,2022-11-28 20:03:44-05:00,single_300ms_late_delay_2_tone_Lab_6,3559,246,EXP8c_maintaskTrials_2_l_rv
pass,6345b7f49677d36bd07c5a10,EXP8c_JF,0,9077ab4ac2c6a1eaf3fb98f663c10d7b81a6cc9251094a2bb883f7723f6f0b08,2366.549044,FALSE,keypress,EXP8c_testRsp_rv,711,[],choice-response,Lab,63855a7052dc2c8cc811b3a4,2022-11-28 20:03:44-05:00,single_300ms_late_delay_2_tone_Lab_7,3809,247,EXP8c_maintaskTrials_2_l_rv
pass,6345b7f49677d36bd07c5a10,EXP8c_JF,0,9077ab4ac2c6a1eaf3fb98f663c10d7b81a6cc9251094a2bb883f7723f6f0b08,2366.549044,FALSE,keypress,EXP8c_testRsp_rv,646,[],choice-response,Lap,63855a7052dc2c8cc811b3a4,2022-11-28 20:03:44-05:00,single_300ms_ontime_delay_2_tone_Lab_2,3559,248,EXP8c_maintaskTrials_2_s_rv
pass,6345b7f49677d36bd07c5a10,EXP8c_JF,0,9077ab4ac2c6a1eaf3fb98f663c10d7b81a6cc9251094a2bb883f7723f6f0b08,2366.549044,FALSE,keypress,EXP8c_testRsp_rv,542,[],choice-response,Lab,63855a7052dc2c8cc811b3a4,2022-11-28 20:03:44-05:00,single_300ms_ontime_delay_2_tone_Lab_5,3513,249,EXP8c_maintaskTrials_2_l_rv
pass,6345b7f49677d36bd07c5a10,EXP8c_JF,0,9077ab4ac2c6a1eaf3fb98f663c10d7b81a6cc9251094a2bb883f7723f6f0b08,2366.549044,FALSE,keypress,EXP8c_testRsp_rv,1523,[],choice-response,Lab,63855a7052dc2c8cc811b3a4,2022-11-28 20:03:44-05:00,single_300ms_early_delay_2_tone_Lab_5,4470,250,EXP8c_maintaskTrials_2_l_rv
pass,6345b7f49677d36bd07c5a10,EXP8c_JF,0,9077ab4ac2c6a1eaf3fb98f663c10d7b81a6cc9251094a2bb883f7723f6f0b08,2366.549044,TRUE,keypress,cat_catchRsp,1782,['Cat meowing'],choice-response,Cat meowing,63855a7052dc2c8cc811b3a4,2022-11-28 20:03:44-05:00,cat_meowing,4313,251,Catch_trials
pass,6345b7f49677d36bd07c5a10,EXP8c_JF,0,9077ab4ac2c6a1eaf3fb98f663c10d7b81a6cc9251094a2bb883f7723f6f0b08,2366.549044,FALSE,keypress,EXP8c_testRsp_rv,2622,[],choice-response,Lab,63855a7052dc2c8cc811b3a4,2022-11-28 20:03:44-05:00,single_300ms_late_delay_2_tone_Lab_5,5720,252,EXP8c_maintaskTrials_2_l_rv
pass,6345b7f49677d36bd07c5a10,EXP8c_JF,0,9077ab4ac2c6a1eaf3fb98f663c10d7b81a6cc9251094a2bb883f7723f6f0b08,2366.549044,FALSE,keypress,EXP8c_testRsp_rv,1118,[],choice-response,Lap,63855a7052dc2c8cc811b3a4,2022-11-28 20:03:44-05:00,single_300ms_ontime_delay_2_tone_Lab_1,4426,253,EXP8c_maintaskTrials_2_s_rv
pass,6345b7f49677d36bd07c5a10,EXP8c_JF,0,9077ab4ac2c6a1eaf3fb98f663c10d7b81a6cc9251094a2bb883f7723f6f0b08,2366.549044,FALSE,keypress,EXP8c_testRsp_rv,1505,[],choice-response,Lap,63855a7052dc2c8cc811b3a4,2022-11-28 20:03:44-05:00,single_300ms_early_delay_2_tone_Lab_2,4424,254,EXP8c_maintaskTrials_2_s_rv
pass,6345b7f49677d36bd07c5a10,EXP8c_JF,0,9077ab4ac2c6a1eaf3fb98f663c10d7b81a6cc9251094a2bb883f7723f6f0b08,2366.549044,FALSE,keypress,EXP8c_testRsp_rv,625,[],choice-response,Lap,63855a7052dc2c8cc811b3a4,2022-11-28 20:03:44-05:00,single_300ms_late_delay_2_tone_Lab_1,3600,255,EXP8c_maintaskTrials_2_s_rv
pass,6345b7f49677d36bd07c5a10,EXP8c_JF,0,9077ab4ac2c6a1eaf3fb98f663c10d7b81a6cc9251094a2bb883f7723f6f0b08,2366.549044,FALSE,keypress,EXP8c_testRsp_rv,510,[],choice-response,Lap,63855a7052dc2c8cc811b3a4,2022-11-28 20:03:44-05:00,single_300ms_late_delay_2_tone_Lab_2,3494,256,EXP8c_maintaskTrials_2_s_rv
pass,6345b7f49677d36bd07c5a10,EXP8c_JF,0,9077ab4ac2c6a1eaf3fb98f663c10d7b81a6cc9251094a2bb883f7723f6f0b08,2366.549044,FALSE,keypress,EXP8c_testRsp_rv,668,[],choice-response,Lab,63855a7052dc2c8cc811b3a4,2022-11-28 20:03:44-05:00,single_300ms_late_delay_2_tone_Lab_7,4111,257,EXP8c_maintaskTrials_2_l_rv
pass,6345b7f49677d36bd07c5a10,EXP8c_JF,0,9077ab4ac2c6a1eaf3fb98f663c10d7b81a6cc9251094a2bb883f7723f6f0b08,2366.549044,FALSE,keypress,EXP8c_testRsp_rv,627,[],choice-response,Lab,63855a7052dc2c8cc811b3a4,2022-11-28 20:03:44-05:00,single_300ms_early_delay_2_tone_Lab_3,3480,258,EXP8c_maintaskTrials_2_s_rv
pass,6345b7f49677d36bd07c5a10,EXP8c_JF,0,9077ab4ac2c6a1eaf3fb98f663c10d7b81a6cc9251094a2bb883f7723f6f0b08,2366.549044,FALSE,keypress,EXP8c_testRsp_rv,1314,[],choice-response,Lap,63855a7052dc2c8cc811b3a4,2022-11-28 20:03:44-05:00,single_300ms_ontime_delay_2_tone_Lab_2,4265,259,EXP8c_maintaskTrials_2_s_rv
pass,6345b7f49677d36bd07c5a10,EXP8c_JF,0,9077ab4ac2c6a1eaf3fb98f663c10d7b81a6cc9251094a2bb883f7723f6f0b08,2366.549044,FALSE,keypress,EXP8c_testRsp_rv,362,[],choice-response,Lab,63855a7052dc2c8cc811b3a4,2022-11-28 20:03:44-05:00,single_300ms_late_delay_2_tone_Lab_6,3444,260,EXP8c_maintaskTrials_2_l_rv
pass,6345b7f49677d36bd07c5a10,EXP8c_JF,0,9077ab4ac2c6a1eaf3fb98f663c10d7b81a6cc9251094a2bb883f7723f6f0b08,2366.549044,FALSE,keypress,EXP8c_testRsp_rv,517,[],choice-response,Lab,63855a7052dc2c8cc811b3a4,2022-11-28 20:03:44-05:00,single_300ms_early_delay_2_tone_Lab_4,3425,261,EXP8c_maintaskTrials_2_s_rv
pass,6345b7f49677d36bd07c5a10,EXP8c_JF,0,9077ab4ac2c6a1eaf3fb98f663c10d7b81a6cc9251094a2bb883f7723f6f0b08,2366.549044,FALSE,keypress,EXP8c_testRsp_rv,332,[],choice-response,Lap,63855a7052dc2c8cc811b3a4,2022-11-28 20:03:44-05:00,single_300ms_ontime_delay_2_tone_Lab_3,3267,262,EXP8c_maintaskTrials_2_s_rv
pass,6345b7f49677d36bd07c5a10,EXP8c_JF,0,9077ab4ac2c6a1eaf3fb98f663c10d7b81a6cc9251094a2bb883f7723f6f0b08,2366.549044,FALSE,keypress,EXP8c_testRsp_rv,525,[],choice-response,Lab,63855a7052dc2c8cc811b3a4,2022-11-28 20:03:44-05:00,single_300ms_ontime_delay_2_tone_Lab_5,3494,263,EXP8c_maintaskTrials_2_l_rv
pass,6345b7f49677d36bd07c5a10,EXP8c_JF,0,9077ab4ac2c6a1eaf3fb98f663c10d7b81a6cc9251094a2bb883f7723f6f0b08,2366.549044,TRUE,keypress,cat_catchRsp,981,['Cat meowing'],choice-response,Cat meowing,63855a7052dc2c8cc811b3a4,2022-11-28 20:03:44-05:00,cat_meowing,3534,264,Catch_trials
pass,6345b7f49677d36bd07c5a10,EXP8c_JF,0,9077ab4ac2c6a1eaf3fb98f663c10d7b81a6cc9251094a2bb883f7723f6f0b08,2366.549044,FALSE,keypress,EXP8c_testRsp_rv,462,[],choice-response,Lab,63855a7052dc2c8cc811b3a4,2022-11-28 20:03:44-05:00,single_300ms_late_delay_2_tone_Lab_4,3519,265,EXP8c_maintaskTrials_2_s_rv
pass,6345b7f49677d36bd07c5a10,EXP8c_JF,0,9077ab4ac2c6a1eaf3fb98f663c10d7b81a6cc9251094a2bb883f7723f6f0b08,2366.549044,FALSE,keypress,EXP8c_testRsp_rv,328,[],choice-response,Lab,63855a7052dc2c8cc811b3a4,2022-11-28 20:03:44-05:00,single_300ms_ontime_delay_2_tone_Lab_8,3462,266,EXP8c_maintaskTrials_2_l_rv
pass,6345b7f49677d36bd07c5a10,EXP8c_JF,0,9077ab4ac2c6a1eaf3fb98f663c10d7b81a6cc9251094a2bb883f7723f6f0b08,2366.549044,FALSE,keypress,EXP8c_testRsp_rv,471,[],choice-response,Lap,63855a7052dc2c8cc811b3a4,2022-11-28 20:03:44-05:00,single_300ms_ontime_delay_2_tone_Lab_4,3420,267,EXP8c_maintaskTrials_2_s_rv
pass,6345b7f49677d36bd07c5a10,EXP8c_JF,0,9077ab4ac2c6a1eaf3fb98f663c10d7b81a6cc9251094a2bb883f7723f6f0b08,2366.549044,FALSE,keypress,EXP8c_testRsp_rv,1266,[],choice-response,Lap,63855a7052dc2c8cc811b3a4,2022-11-28 20:03:44-05:00,single_300ms_early_delay_2_tone_Lab_1,4077,268,EXP8c_maintaskTrials_2_s_rv
pass,6345b7f49677d36bd07c5a10,EXP8c_JF,0,9077ab4ac2c6a1eaf3fb98f663c10d7b81a6cc9251094a2bb883f7723f6f0b08,2366.549044,FALSE,keypress,EXP8c_testRsp_rv,337,[],choice-response,Lab,63855a7052dc2c8cc811b3a4,2022-11-28 20:03:44-05:00,single_300ms_early_delay_2_tone_Lab_5,3263,269,EXP8c_maintaskTrials_2_l_rv
pass,6345b7f49677d36bd07c5a10,EXP8c_JF,0,9077ab4ac2c6a1eaf3fb98f663c10d7b81a6cc9251094a2bb883f7723f6f0b08,2366.549044,FALSE,keypress,EXP8c_testRsp_rv,708,[],choice-response,Lab,63855a7052dc2c8cc811b3a4,2022-11-28 20:03:44-05:00,single_300ms_early_delay_2_tone_Lab_7,3603,270,EXP8c_maintaskTrials_2_l_rv
pass,6345b7f49677d36bd07c5a10,EXP8c_JF,0,9077ab4ac2c6a1eaf3fb98f663c10d7b81a6cc9251094a2bb883f7723f6f0b08,2366.549044,FALSE,keypress,EXP8c_testRsp_rv,177,[],choice-response,Lab,63855a7052dc2c8cc811b3a4,2022-11-28 20:03:44-05:00,single_300ms_late_delay_2_tone_Lab_8,3292,271,EXP8c_maintaskTrials_2_l_rv
pass,6345b7f49677d36bd07c5a10,EXP8c_JF,0,9077ab4ac2c6a1eaf3fb98f663c10d7b81a6cc9251094a2bb883f7723f6f0b08,2366.549044,FALSE,keypress,EXP8c_testRsp_rv,348,[],choice-response,Lab,63855a7052dc2c8cc811b3a4,2022-11-28 20:03:44-05:00,single_300ms_early_delay_2_tone_Lab_8,3267,272,EXP8c_maintaskTrials_2_l_rv
pass,6345b7f49677d36bd07c5a10,EXP8c_JF,0,9077ab4ac2c6a1eaf3fb98f663c10d7b81a6cc9251094a2bb883f7723f6f0b08,2366.549044,FALSE,keypress,EXP8c_testRsp_rv,503,[],choice-response,Lab,63855a7052dc2c8cc811b3a4,2022-11-28 20:03:44-05:00,single_300ms_ontime_delay_2_tone_Lab_6,3488,273,EXP8c_maintaskTrials_2_l_rv
pass,6345b7f49677d36bd07c5a10,EXP8c_JF,0,9077ab4ac2c6a1eaf3fb98f663c10d7b81a6cc9251094a2bb883f7723f6f0b08,2366.549044,FALSE,keypress,EXP8c_testRsp_rv,493,[],choice-response,Lab,63855a7052dc2c8cc811b3a4,2022-11-28 20:03:44-05:00,single_300ms_late_delay_2_tone_Lab_5,3563,274,EXP8c_maintaskTrials_2_l_rv
pass,6345b7f49677d36bd07c5a10,EXP8c_JF,0,9077ab4ac2c6a1eaf3fb98f663c10d7b81a6cc9251094a2bb883f7723f6f0b08,2366.549044,FALSE,keypress,EXP8c_testRsp_rv,1024,[],choice-response,Lap,63855a7052dc2c8cc811b3a4,2022-11-28 20:03:44-05:00,single_300ms_ontime_delay_2_tone_Lab_7,4038,275,EXP8c_maintaskTrials_2_l_rv
pass,6345b7f49677d36bd07c5a10,EXP8c_JF,0,9077ab4ac2c6a1eaf3fb98f663c10d7b81a6cc9251094a2bb883f7723f6f0b08,2366.549044,TRUE,keypress,bird_catchRsp,1013,['Bird singing'],choice-response,Bird singing,63855a7052dc2c8cc811b3a4,2022-11-28 20:03:44-05:00,songbird,3630,276,Catch_trials
pass,6345b7f49677d36bd07c5a10,EXP8c_JF,0,9077ab4ac2c6a1eaf3fb98f663c10d7b81a6cc9251094a2bb883f7723f6f0b08,2366.549044,FALSE,keypress,EXP8c_testRsp_rv,1101,[],choice-response,Lap,63855a7052dc2c8cc811b3a4,2022-11-28 20:03:44-05:00,single_300ms_late_delay_2_tone_Lab_3,4130,277,EXP8c_maintaskTrials_2_s_rv
pass,6345b7f49677d36bd07c5a10,EXP8c_JF,0,9077ab4ac2c6a1eaf3fb98f663c10d7b81a6cc9251094a2bb883f7723f6f0b08,2366.549044,FALSE,keypress,EXP8c_testRsp_rv,720,[],choice-response,Lab,63855a7052dc2c8cc811b3a4,2022-11-28 20:03:44-05:00,single_300ms_early_delay_2_tone_Lab_6,3590,278,EXP8c_maintaskTrials_2_l_rv
pass,6345b7f49677d36bd07c5a10,EXP8c_JF,0,9077ab4ac2c6a1eaf3fb98f663c10d7b81a6cc9251094a2bb883f7723f6f0b08,2366.549044,FALSE,keypress,EXP8c_testRsp_rv,761,[],choice-response,Lap,63855a7052dc2c8cc811b3a4,2022-11-28 20:03:44-05:00,single_300ms_late_delay_2_tone_Lab_2,3763,279,EXP8c_maintaskTrials_2_s_rv
pass,6345b7f49677d36bd07c5a10,EXP8c_JF,0,9077ab4ac2c6a1eaf3fb98f663c10d7b81a6cc9251094a2bb883f7723f6f0b08,2366.549044,FALSE,keypress,EXP8c_testRsp_rv,598,[],choice-response,Lap,63855a7052dc2c8cc811b3a4,2022-11-28 20:03:44-05:00,single_300ms_ontime_delay_2_tone_Lab_3,3511,280,EXP8c_maintaskTrials_2_s_rv
pass,6345b7f49677d36bd07c5a10,EXP8c_JF,0,9077ab4ac2c6a1eaf3fb98f663c10d7b81a6cc9251094a2bb883f7723f6f0b08,2366.549044,FALSE,keypress,EXP8c_testRsp_rv,589,[],choice-response,Lab,63855a7052dc2c8cc811b3a4,2022-11-28 20:03:44-05:00,single_300ms_early_delay_2_tone_Lab_7,3507,281,EXP8c_maintaskTrials_2_l_rv
pass,6345b7f49677d36bd07c5a10,EXP8c_JF,0,9077ab4ac2c6a1eaf3fb98f663c10d7b81a6cc9251094a2bb883f7723f6f0b08,2366.549044,FALSE,keypress,EXP8c_testRsp_rv,368,[],choice-response,Lap,63855a7052dc2c8cc811b3a4,2022-11-28 20:03:44-05:00,single_300ms_late_delay_2_tone_Lab_1,3338,282,EXP8c_maintaskTrials_2_s_rv
pass,6345b7f49677d36bd07c5a10,EXP8c_JF,0,9077ab4ac2c6a1eaf3fb98f663c10d7b81a6cc9251094a2bb883f7723f6f0b08,2366.549044,FALSE,keypress,EXP8c_testRsp_rv,495,[],choice-response,Lab,63855a7052dc2c8cc811b3a4,2022-11-28 20:03:44-05:00,single_300ms_ontime_delay_2_tone_Lab_5,3492,283,EXP8c_maintaskTrials_2_l_rv
pass,6345b7f49677d36bd07c5a10,EXP8c_JF,0,9077ab4ac2c6a1eaf3fb98f663c10d7b81a6cc9251094a2bb883f7723f6f0b08,2366.549044,FALSE,keypress,EXP8c_testRsp_rv,387,[],choice-response,Lab,63855a7052dc2c8cc811b3a4,2022-11-28 20:03:44-05:00,single_300ms_ontime_delay_2_tone_Lab_8,3436,284,EXP8c_maintaskTrials_2_l_rv
pass,6345b7f49677d36bd07c5a10,EXP8c_JF,0,9077ab4ac2c6a1eaf3fb98f663c10d7b81a6cc9251094a2bb883f7723f6f0b08,2366.549044,FALSE,keypress,EXP8c_testRsp_rv,524,[],choice-response,Lab,63855a7052dc2c8cc811b3a4,2022-11-28 20:03:44-05:00,single_300ms_late_delay_2_tone_Lab_3,3541,285,EXP8c_maintaskTrials_2_s_rv
pass,6345b7f49677d36bd07c5a10,EXP8c_JF,0,9077ab4ac2c6a1eaf3fb98f663c10d7b81a6cc9251094a2bb883f7723f6f0b08,2366.549044,FALSE,keypress,EXP8c_testRsp_rv,635,[],choice-response,Lap,63855a7052dc2c8cc811b3a4,2022-11-28 20:03:44-05:00,single_300ms_early_delay_2_tone_Lab_3,3446,286,EXP8c_maintaskTrials_2_s_rv
pass,6345b7f49677d36bd07c5a10,EXP8c_JF,0,9077ab4ac2c6a1eaf3fb98f663c10d7b81a6cc9251094a2bb883f7723f6f0b08,2366.549044,FALSE,keypress,EXP8c_testRsp_rv,682,[],choice-response,Lab,63855a7052dc2c8cc811b3a4,2022-11-28 20:03:44-05:00,single_300ms_early_delay_2_tone_Lab_4,3557,287,EXP8c_maintaskTrials_2_s_rv
pass,6345b7f49677d36bd07c5a10,EXP8c_JF,0,9077ab4ac2c6a1eaf3fb98f663c10d7b81a6cc9251094a2bb883f7723f6f0b08,2366.549044,TRUE,keypress,cat_catchRsp,1780,['Cat meowing'],choice-response,Cat meowing,63855a7052dc2c8cc811b3a4,2022-11-28 20:03:44-05:00,cat_meowing,4311,288,Catch_trials
pass,6345b7f49677d36bd07c5a10,EXP8c_JF,0,9077ab4ac2c6a1eaf3fb98f663c10d7b81a6cc9251094a2bb883f7723f6f0b08,2366.549044,FALSE,keypress,EXP8c_testRsp_rv,561,[],choice-response,Lab,63855a7052dc2c8cc811b3a4,2022-11-28 20:03:44-05:00,single_300ms_late_delay_2_tone_Lab_5,3599,289,EXP8c_maintaskTrials_2_l_rv
pass,6345b7f49677d36bd07c5a10,EXP8c_JF,0,9077ab4ac2c6a1eaf3fb98f663c10d7b81a6cc9251094a2bb883f7723f6f0b08,2366.549044,FALSE,keypress,EXP8c_testRsp_rv,378,[],choice-response,Lab,63855a7052dc2c8cc811b3a4,2022-11-28 20:03:44-05:00,single_300ms_ontime_delay_2_tone_Lab_4,3340,290,EXP8c_maintaskTrials_2_s_rv
pass,6345b7f49677d36bd07c5a10,EXP8c_JF,0,9077ab4ac2c6a1eaf3fb98f663c10d7b81a6cc9251094a2bb883f7723f6f0b08,2366.549044,FALSE,keypress,EXP8c_testRsp_rv,653,[],choice-response,Lab,63855a7052dc2c8cc811b3a4,2022-11-28 20:03:44-05:00,single_300ms_late_delay_2_tone_Lab_6,3755,291,EXP8c_maintaskTrials_2_l_rv
pass,6345b7f49677d36bd07c5a10,EXP8c_JF,0,9077ab4ac2c6a1eaf3fb98f663c10d7b81a6cc9251094a2bb883f7723f6f0b08,2366.549044,FALSE,keypress,EXP8c_testRsp_rv,318,[],choice-response,Lap,63855a7052dc2c8cc811b3a4,2022-11-28 20:03:44-05:00,single_300ms_early_delay_2_tone_Lab_1,3123,292,EXP8c_maintaskTrials_2_s_rv
pass,6345b7f49677d36bd07c5a10,EXP8c_JF,0,9077ab4ac2c6a1eaf3fb98f663c10d7b81a6cc9251094a2bb883f7723f6f0b08,2366.549044,FALSE,keypress,EXP8c_testRsp_rv,414,[],choice-response,Lab,63855a7052dc2c8cc811b3a4,2022-11-28 20:03:44-05:00,single_300ms_early_delay_2_tone_Lab_8,3341,293,EXP8c_maintaskTrials_2_l_rv
pass,6345b7f49677d36bd07c5a10,EXP8c_JF,0,9077ab4ac2c6a1eaf3fb98f663c10d7b81a6cc9251094a2bb883f7723f6f0b08,2366.549044,FALSE,keypress,EXP8c_testRsp_rv,592,[],choice-response,Lap,63855a7052dc2c8cc811b3a4,2022-11-28 20:03:44-05:00,single_300ms_early_delay_2_tone_Lab_2,3407,294,EXP8c_maintaskTrials_2_s_rv
pass,6345b7f49677d36bd07c5a10,EXP8c_JF,0,9077ab4ac2c6a1eaf3fb98f663c10d7b81a6cc9251094a2bb883f7723f6f0b08,2366.549044,FALSE,keypress,EXP8c_testRsp_rv,555,[],choice-response,Lab,63855a7052dc2c8cc811b3a4,2022-11-28 20:03:44-05:00,single_300ms_ontime_delay_2_tone_Lab_6,3516,295,EXP8c_maintaskTrials_2_l_rv
pass,6345b7f49677d36bd07c5a10,EXP8c_JF,0,9077ab4ac2c6a1eaf3fb98f663c10d7b81a6cc9251094a2bb883f7723f6f0b08,2366.549044,FALSE,keypress,EXP8c_testRsp_rv,351,[],choice-response,Lap,63855a7052dc2c8cc811b3a4,2022-11-28 20:03:44-05:00,single_300ms_ontime_delay_2_tone_Lab_2,3264,296,EXP8c_maintaskTrials_2_s_rv
pass,6345b7f49677d36bd07c5a10,EXP8c_JF,0,9077ab4ac2c6a1eaf3fb98f663c10d7b81a6cc9251094a2bb883f7723f6f0b08,2366.549044,FALSE,keypress,EXP8c_testRsp_rv,1636,[],choice-response,Lab,63855a7052dc2c8cc811b3a4,2022-11-28 20:03:44-05:00,single_300ms_early_delay_2_tone_Lab_5,4537,297,EXP8c_maintaskTrials_2_l_rv
pass,6345b7f49677d36bd07c5a10,EXP8c_JF,0,9077ab4ac2c6a1eaf3fb98f663c10d7b81a6cc9251094a2bb883f7723f6f0b08,2366.549044,FALSE,keypress,EXP8c_testRsp_rv,547,[],choice-response,Lab,63855a7052dc2c8cc811b3a4,2022-11-28 20:03:44-05:00,single_300ms_ontime_delay_2_tone_Lab_7,3569,298,EXP8c_maintaskTrials_2_l_rv
pass,6345b7f49677d36bd07c5a10,EXP8c_JF,0,9077ab4ac2c6a1eaf3fb98f663c10d7b81a6cc9251094a2bb883f7723f6f0b08,2366.549044,FALSE,keypress,EXP8c_testRsp_rv,164,[],choice-response,Lab,63855a7052dc2c8cc811b3a4,2022-11-28 20:03:44-05:00,single_300ms_late_delay_2_tone_Lab_8,3273,299,EXP8c_maintaskTrials_2_l_rv
pass,6345b7f49677d36bd07c5a10,EXP8c_JF,0,9077ab4ac2c6a1eaf3fb98f663c10d7b81a6cc9251094a2bb883f7723f6f0b08,2366.549044,TRUE,keypress,bird_catchRsp,902,['Bird singing'],choice-response,Bird singing,63855a7052dc2c8cc811b3a4,2022-11-28 20:03:44-05:00,songbird,3441,300,Catch_trials
pass,6345b7f49677d36bd07c5a10,EXP8c_JF,0,9077ab4ac2c6a1eaf3fb98f663c10d7b81a6cc9251094a2bb883f7723f6f0b08,2366.549044,FALSE,keypress,EXP8c_testRsp_rv,536,[],choice-response,Lap,63855a7052dc2c8cc811b3a4,2022-11-28 20:03:44-05:00,single_300ms_late_delay_2_tone_Lab_4,3576,301,EXP8c_maintaskTrials_2_s_rv
pass,6345b7f49677d36bd07c5a10,EXP8c_JF,0,9077ab4ac2c6a1eaf3fb98f663c10d7b81a6cc9251094a2bb883f7723f6f0b08,2366.549044,FALSE,keypress,EXP8c_testRsp_rv,830,[],choice-response,Lab,63855a7052dc2c8cc811b3a4,2022-11-28 20:03:44-05:00,single_300ms_late_delay_2_tone_Lab_7,3930,302,EXP8c_maintaskTrials_2_l_rv
pass,6345b7f49677d36bd07c5a10,EXP8c_JF,0,9077ab4ac2c6a1eaf3fb98f663c10d7b81a6cc9251094a2bb883f7723f6f0b08,2366.549044,FALSE,keypress,EXP8c_testRsp_rv,560,[],choice-response,Lap,63855a7052dc2c8cc811b3a4,2022-11-28 20:03:44-05:00,single_300ms_ontime_delay_2_tone_Lab_1,3471,303,EXP8c_maintaskTrials_2_s_rv
pass,6345b7f49677d36bd07c5a10,EXP8c_JF,0,9077ab4ac2c6a1eaf3fb98f663c10d7b81a6cc9251094a2bb883f7723f6f0b08,2366.549044,FALSE,keypress,EXP8c_testRsp_rv,648,[],choice-response,Lab,63855a7052dc2c8cc811b3a4,2022-11-28 20:03:44-05:00,single_300ms_early_delay_2_tone_Lab_6,3536,304,EXP8c_maintaskTrials_2_l_rv
pass,6345b7f49677d36bd07c5a10,EXP8c_JF,0,9077ab4ac2c6a1eaf3fb98f663c10d7b81a6cc9251094a2bb883f7723f6f0b08,2366.549044,FALSE,keypress,EXP8c_testRsp_rv,2132,[],choice-response,Lap,63855a7052dc2c8cc811b3a4,2022-11-28 20:03:44-05:00,single_300ms_ontime_delay_2_tone_Lab_6,5114,305,EXP8c_maintaskTrials_2_l_rv
pass,6345b7f49677d36bd07c5a10,EXP8c_JF,0,9077ab4ac2c6a1eaf3fb98f663c10d7b81a6cc9251094a2bb883f7723f6f0b08,2366.549044,FALSE,keypress,EXP8c_testRsp_rv,564,[],choice-response,Lap,63855a7052dc2c8cc811b3a4,2022-11-28 20:03:44-05:00,single_300ms_ontime_delay_2_tone_Lab_5,3510,306,EXP8c_maintaskTrials_2_l_rv
pass,6345b7f49677d36bd07c5a10,EXP8c_JF,0,9077ab4ac2c6a1eaf3fb98f663c10d7b81a6cc9251094a2bb883f7723f6f0b08,2366.549044,FALSE,keypress,EXP8c_testRsp_rv,601,[],choice-response,Lab,63855a7052dc2c8cc811b3a4,2022-11-28 20:03:44-05:00,single_300ms_early_delay_2_tone_Lab_5,3485,307,EXP8c_maintaskTrials_2_l_rv
pass,6345b7f49677d36bd07c5a10,EXP8c_JF,0,9077ab4ac2c6a1eaf3fb98f663c10d7b81a6cc9251094a2bb883f7723f6f0b08,2366.549044,FALSE,keypress,EXP8c_testRsp_rv,537,[],choice-response,Lap,63855a7052dc2c8cc811b3a4,2022-11-28 20:03:44-05:00,single_300ms_late_delay_2_tone_Lab_1,3525,308,EXP8c_maintaskTrials_2_s_rv
pass,6345b7f49677d36bd07c5a10,EXP8c_JF,0,9077ab4ac2c6a1eaf3fb98f663c10d7b81a6cc9251094a2bb883f7723f6f0b08,2366.549044,FALSE,keypress,EXP8c_testRsp_rv,999,[],choice-response,Lab,63855a7052dc2c8cc811b3a4,2022-11-28 20:03:44-05:00,single_300ms_early_delay_2_tone_Lab_7,3910,309,EXP8c_maintaskTrials_2_l_rv
pass,6345b7f49677d36bd07c5a10,EXP8c_JF,0,9077ab4ac2c6a1eaf3fb98f663c10d7b81a6cc9251094a2bb883f7723f6f0b08,2366.549044,FALSE,keypress,EXP8c_testRsp_rv,612,[],choice-response,Lab,63855a7052dc2c8cc811b3a4,2022-11-28 20:03:44-05:00,single_300ms_late_delay_2_tone_Lab_7,3760,310,EXP8c_maintaskTrials_2_l_rv
pass,6345b7f49677d36bd07c5a10,EXP8c_JF,0,9077ab4ac2c6a1eaf3fb98f663c10d7b81a6cc9251094a2bb883f7723f6f0b08,2366.549044,FALSE,keypress,EXP8c_testRsp_rv,431,[],choice-response,Lap,63855a7052dc2c8cc811b3a4,2022-11-28 20:03:44-05:00,single_300ms_late_delay_2_tone_Lab_3,3443,311,EXP8c_maintaskTrials_2_s_rv
pass,6345b7f49677d36bd07c5a10,EXP8c_JF,0,9077ab4ac2c6a1eaf3fb98f663c10d7b81a6cc9251094a2bb883f7723f6f0b08,2366.549044,TRUE,keypress,cat_catchRsp,1633,['Cat meowing'],choice-response,Cat meowing,63855a7052dc2c8cc811b3a4,2022-11-28 20:03:44-05:00,cat_meowing,4190,312,Catch_trials
pass,6345b7f49677d36bd07c5a10,EXP8c_JF,0,9077ab4ac2c6a1eaf3fb98f663c10d7b81a6cc9251094a2bb883f7723f6f0b08,2366.549044,FALSE,keypress,EXP8c_testRsp_rv,679,[],choice-response,Lap,63855a7052dc2c8cc811b3a4,2022-11-28 20:03:44-05:00,single_300ms_ontime_delay_2_tone_Lab_4,3636,313,EXP8c_maintaskTrials_2_s_rv
pass,6345b7f49677d36bd07c5a10,EXP8c_JF,0,9077ab4ac2c6a1eaf3fb98f663c10d7b81a6cc9251094a2bb883f7723f6f0b08,2366.549044,FALSE,keypress,EXP8c_testRsp_rv,1341,[],choice-response,Lab,63855a7052dc2c8cc811b3a4,2022-11-28 20:03:44-05:00,single_300ms_late_delay_2_tone_Lab_6,4428,314,EXP8c_maintaskTrials_2_l_rv
pass,6345b7f49677d36bd07c5a10,EXP8c_JF,0,9077ab4ac2c6a1eaf3fb98f663c10d7b81a6cc9251094a2bb883f7723f6f0b08,2366.549044,FALSE,keypress,EXP8c_testRsp_rv,516,[],choice-response,Lap,63855a7052dc2c8cc811b3a4,2022-11-28 20:03:44-05:00,single_300ms_late_delay_2_tone_Lab_5,3559,315,EXP8c_maintaskTrials_2_l_rv
pass,6345b7f49677d36bd07c5a10,EXP8c_JF,0,9077ab4ac2c6a1eaf3fb98f663c10d7b81a6cc9251094a2bb883f7723f6f0b08,2366.549044,FALSE,keypress,EXP8c_testRsp_rv,480,[],choice-response,Lap,63855a7052dc2c8cc811b3a4,2022-11-28 20:03:44-05:00,single_300ms_late_delay_2_tone_Lab_4,3520,316,EXP8c_maintaskTrials_2_s_rv
pass,6345b7f49677d36bd07c5a10,EXP8c_JF,0,9077ab4ac2c6a1eaf3fb98f663c10d7b81a6cc9251094a2bb883f7723f6f0b08,2366.549044,FALSE,keypress,EXP8c_testRsp_rv,373,[],choice-response,Lap,63855a7052dc2c8cc811b3a4,2022-11-28 20:03:44-05:00,single_300ms_early_delay_2_tone_Lab_3,3193,317,EXP8c_maintaskTrials_2_s_rv
pass,6345b7f49677d36bd07c5a10,EXP8c_JF,0,9077ab4ac2c6a1eaf3fb98f663c10d7b81a6cc9251094a2bb883f7723f6f0b08,2366.549044,FALSE,keypress,EXP8c_testRsp_rv,1204,[],choice-response,Lab,63855a7052dc2c8cc811b3a4,2022-11-28 20:03:44-05:00,single_300ms_early_delay_2_tone_Lab_8,4125,318,EXP8c_maintaskTrials_2_l_rv
pass,6345b7f49677d36bd07c5a10,EXP8c_JF,0,9077ab4ac2c6a1eaf3fb98f663c10d7b81a6cc9251094a2bb883f7723f6f0b08,2366.549044,FALSE,keypress,EXP8c_testRsp_rv,516,[],choice-response,Lap,63855a7052dc2c8cc811b3a4,2022-11-28 20:03:44-05:00,single_300ms_early_delay_2_tone_Lab_4,3394,319,EXP8c_maintaskTrials_2_s_rv
pass,6345b7f49677d36bd07c5a10,EXP8c_JF,0,9077ab4ac2c6a1eaf3fb98f663c10d7b81a6cc9251094a2bb883f7723f6f0b08,2366.549044,FALSE,keypress,EXP8c_testRsp_rv,418,[],choice-response,Lap,63855a7052dc2c8cc811b3a4,2022-11-28 20:03:44-05:00,single_300ms_early_delay_2_tone_Lab_6,3317,320,EXP8c_maintaskTrials_2_l_rv
pass,6345b7f49677d36bd07c5a10,EXP8c_JF,0,9077ab4ac2c6a1eaf3fb98f663c10d7b81a6cc9251094a2bb883f7723f6f0b08,2366.549044,FALSE,keypress,EXP8c_testRsp_rv,314,[],choice-response,Lap,63855a7052dc2c8cc811b3a4,2022-11-28 20:03:44-05:00,single_300ms_ontime_delay_2_tone_Lab_1,3213,321,EXP8c_maintaskTrials_2_s_rv
pass,6345b7f49677d36bd07c5a10,EXP8c_JF,0,9077ab4ac2c6a1eaf3fb98f663c10d7b81a6cc9251094a2bb883f7723f6f0b08,2366.549044,FALSE,keypress,EXP8c_testRsp_rv,713,[],choice-response,Lab,63855a7052dc2c8cc811b3a4,2022-11-28 20:03:44-05:00,single_300ms_ontime_delay_2_tone_Lab_7,3820,322,EXP8c_maintaskTrials_2_l_rv
pass,6345b7f49677d36bd07c5a10,EXP8c_JF,0,9077ab4ac2c6a1eaf3fb98f663c10d7b81a6cc9251094a2bb883f7723f6f0b08,2366.549044,FALSE,keypress,EXP8c_testRsp_rv,294,[],choice-response,Lap,63855a7052dc2c8cc811b3a4,2022-11-28 20:03:44-05:00,single_300ms_early_delay_2_tone_Lab_1,3174,323,EXP8c_maintaskTrials_2_s_rv
pass,6345b7f49677d36bd07c5a10,EXP8c_JF,0,9077ab4ac2c6a1eaf3fb98f663c10d7b81a6cc9251094a2bb883f7723f6f0b08,2366.549044,TRUE,keypress,bird_catchRsp,6217,['Bird singing'],choice-response,Bird singing,63855a7052dc2c8cc811b3a4,2022-11-28 20:03:44-05:00,songbird,8810,324,Catch_trials
pass,6345b7f49677d36bd07c5a10,EXP8c_JF,0,9077ab4ac2c6a1eaf3fb98f663c10d7b81a6cc9251094a2bb883f7723f6f0b08,2366.549044,FALSE,keypress,EXP8c_testRsp_rv,329,[],choice-response,Lab,63855a7052dc2c8cc811b3a4,2022-11-28 20:03:44-05:00,single_300ms_late_delay_2_tone_Lab_8,3465,325,EXP8c_maintaskTrials_2_l_rv
pass,6345b7f49677d36bd07c5a10,EXP8c_JF,0,9077ab4ac2c6a1eaf3fb98f663c10d7b81a6cc9251094a2bb883f7723f6f0b08,2366.549044,FALSE,keypress,EXP8c_testRsp_rv,540,[],choice-response,Lap,63855a7052dc2c8cc811b3a4,2022-11-28 20:03:44-05:00,single_300ms_late_delay_2_tone_Lab_2,3585,326,EXP8c_maintaskTrials_2_s_rv
pass,6345b7f49677d36bd07c5a10,EXP8c_JF,0,9077ab4ac2c6a1eaf3fb98f663c10d7b81a6cc9251094a2bb883f7723f6f0b08,2366.549044,FALSE,keypress,EXP8c_testRsp_rv,418,[],choice-response,Lab,63855a7052dc2c8cc811b3a4,2022-11-28 20:03:44-05:00,single_300ms_ontime_delay_2_tone_Lab_8,3642,327,EXP8c_maintaskTrials_2_l_rv
pass,6345b7f49677d36bd07c5a10,EXP8c_JF,0,9077ab4ac2c6a1eaf3fb98f663c10d7b81a6cc9251094a2bb883f7723f6f0b08,2366.549044,FALSE,keypress,EXP8c_testRsp_rv,285,[],choice-response,Lap,63855a7052dc2c8cc811b3a4,2022-11-28 20:03:44-05:00,single_300ms_early_delay_2_tone_Lab_2,3117,328,EXP8c_maintaskTrials_2_s_rv
pass,6345b7f49677d36bd07c5a10,EXP8c_JF,0,9077ab4ac2c6a1eaf3fb98f663c10d7b81a6cc9251094a2bb883f7723f6f0b08,2366.549044,FALSE,keypress,EXP8c_testRsp_rv,258,[],choice-response,Lab,63855a7052dc2c8cc811b3a4,2022-11-28 20:03:44-05:00,single_300ms_ontime_delay_2_tone_Lab_3,3190,329,EXP8c_maintaskTrials_2_s_rv
pass,6345b7f49677d36bd07c5a10,EXP8c_JF,0,9077ab4ac2c6a1eaf3fb98f663c10d7b81a6cc9251094a2bb883f7723f6f0b08,2366.549044,FALSE,keypress,EXP8c_testRsp_rv,862,[],choice-response,Lap,63855a7052dc2c8cc811b3a4,2022-11-28 20:03:44-05:00,single_300ms_ontime_delay_2_tone_Lab_2,3813,330,EXP8c_maintaskTrials_2_s_rv
pass,6345b7f49677d36bd07c5a10,EXP8c_JF,0,9077ab4ac2c6a1eaf3fb98f663c10d7b81a6cc9251094a2bb883f7723f6f0b08,2366.549044,FALSE,keypress,EXP8c_testRsp_rv,1174,[],choice-response,Lap,63855a7052dc2c8cc811b3a4,2022-11-28 20:03:44-05:00,single_300ms_late_delay_2_tone_Lab_3,4195,331,EXP8c_maintaskTrials_2_s_rv
pass,6345b7f49677d36bd07c5a10,EXP8c_JF,0,9077ab4ac2c6a1eaf3fb98f663c10d7b81a6cc9251094a2bb883f7723f6f0b08,2366.549044,FALSE,keypress,EXP8c_testRsp_rv,452,[],choice-response,Lab,63855a7052dc2c8cc811b3a4,2022-11-28 20:03:44-05:00,single_300ms_ontime_delay_2_tone_Lab_5,3413,332,EXP8c_maintaskTrials_2_l_rv
pass,6345b7f49677d36bd07c5a10,EXP8c_JF,0,9077ab4ac2c6a1eaf3fb98f663c10d7b81a6cc9251094a2bb883f7723f6f0b08,2366.549044,FALSE,keypress,EXP8c_testRsp_rv,917,[],choice-response,Lab,63855a7052dc2c8cc811b3a4,2022-11-28 20:03:44-05:00,single_300ms_ontime_delay_2_tone_Lab_4,3854,333,EXP8c_maintaskTrials_2_s_rv
pass,6345b7f49677d36bd07c5a10,EXP8c_JF,0,9077ab4ac2c6a1eaf3fb98f663c10d7b81a6cc9251094a2bb883f7723f6f0b08,2366.549044,FALSE,keypress,EXP8c_testRsp_rv,400,[],choice-response,Lap,63855a7052dc2c8cc811b3a4,2022-11-28 20:03:44-05:00,single_300ms_ontime_delay_2_tone_Lab_3,3334,334,EXP8c_maintaskTrials_2_s_rv
pass,6345b7f49677d36bd07c5a10,EXP8c_JF,0,9077ab4ac2c6a1eaf3fb98f663c10d7b81a6cc9251094a2bb883f7723f6f0b08,2366.549044,FALSE,keypress,EXP8c_testRsp_rv,647,[],choice-response,Lap,63855a7052dc2c8cc811b3a4,2022-11-28 20:03:44-05:00,single_300ms_late_delay_2_tone_Lab_2,3648,335,EXP8c_maintaskTrials_2_s_rv
