,branch_failpass,expt_id,group_id,network_error_repeat,participant_id,participation_duration,response_correct,response_mode,response_name,response_rt,response_target,response_type,response_value,session_id,session_start_time,stimuli_presented,trial_duration,trial_num,trial_template,task,sub_id,exp,Correct,Shorter,Onset,Length
0,pass,6345b7f49677d36bd07c5a10,EXP8c_FJ,0,83580f8a886e834911f97058709a23a6ae5fc38fd5de045c2211491d55303283,3363.250174999237,False,keypress,EXP8c_testRsp,1174,[],choice-response,Lap,636e065bbae6d6e5860db41b,2022-11-11 03:22:51-05:00,single_300ms_ontime_delay_2_tone_Lab_3,4120,96,EXP8c_maintaskTrials_2_s,maintaskTrials,83580,EXP8c,0,1,ontime,3
1,pass,6345b7f49677d36bd07c5a10,EXP8c_FJ,0,83580f8a886e834911f97058709a23a6ae5fc38fd5de045c2211491d55303283,3363.250174999237,False,keypress,EXP8c_testRsp,7932,[],choice-response,Lab,636e065bbae6d6e5860db41b,2022-11-11 03:22:51-05:00,single_300ms_late_delay_2_tone_Lab_3,11208,97,EXP8c_maintaskTrials_2_s,maintaskTrials,83580,EXP8c,0,0,late,3
2,pass,6345b7f49677d36bd07c5a10,EXP8c_FJ,0,83580f8a886e834911f97058709a23a6ae5fc38fd5de045c2211491d55303283,3363.250174999237,False,keypress,EXP8c_testRsp,1141,[],choice-response,Lab,636e065bbae6d6e5860db41b,2022-11-11 03:22:51-05:00,single_300ms_early_delay_2_tone_Lab_2,4009,98,EXP8c_maintaskTrials_2_s,maintaskTrials,83580,EXP8c,0,0,early,2
3,pass,6345b7f49677d36bd07c5a10,EXP8c_FJ,0,83580f8a886e834911f97058709a23a6ae5fc38fd5de045c2211491d55303283,3363.250174999237,False,keypress,EXP8c_testRsp,438,[],choice-response,Lab,636e065bbae6d6e5860db41b,2022-11-11 03:22:51-05:00,single_300ms_ontime_delay_2_tone_Lab_2,3375,99,EXP8c_maintaskTrials_2_s,maintaskTrials,83580,EXP8c,0,0,ontime,2
4,pass,6345b7f49677d36bd07c5a10,EXP8c_FJ,0,83580f8a886e834911f97058709a23a6ae5fc38fd5de045c2211491d55303283,3363.250174999237,False,keypress,EXP8c_testRsp,282,[],choice-response,Lab,636e065bbae6d6e5860db41b,2022-11-11 03:22:51-05:00,single_300ms_early_delay_2_tone_Lab_5,3167,100,EXP8c_maintaskTrials_2_l,maintaskTrials,83580,EXP8c,0,0,early,5
5,pass,6345b7f49677d36bd07c5a10,EXP8c_FJ,0,83580f8a886e834911f97058709a23a6ae5fc38fd5de045c2211491d55303283,3363.250174999237,False,keypress,EXP8c_testRsp,407,[],choice-response,Lab,636e065bbae6d6e5860db41b,2022-11-11 03:22:51-05:00,single_300ms_early_delay_2_tone_Lab_4,3269,101,EXP8c_maintaskTrials_2_s,maintaskTrials,83580,EXP8c,0,0,early,4
6,pass,6345b7f49677d36bd07c5a10,EXP8c_FJ,0,83580f8a886e834911f97058709a23a6ae5fc38fd5de045c2211491d55303283,3363.250174999237,False,keypress,EXP8c_testRsp,372,[],choice-response,Lab,636e065bbae6d6e5860db41b,2022-11-11 03:22:51-05:00,single_300ms_late_delay_2_tone_Lab_7,3498,102,EXP8c_maintaskTrials_2_l,maintaskTrials,83580,EXP8c,0,0,late,7
7,pass,6345b7f49677d36bd07c5a10,EXP8c_FJ,0,83580f8a886e834911f97058709a23a6ae5fc38fd5de045c2211491d55303283,3363.250174999237,False,keypress,EXP8c_testRsp,359,[],choice-response,Lab,636e065bbae6d6e5860db41b,2022-11-11 03:22:51-05:00,single_300ms_late_delay_2_tone_Lab_8,3527,103,EXP8c_maintaskTrials_2_l,maintaskTrials,83580,EXP8c,0,0,late,8
8,pass,6345b7f49677d36bd07c5a10,EXP8c_FJ,0,83580f8a886e834911f97058709a23a6ae5fc38fd5de045c2211491d55303283,3363.250174999237,False,keypress,EXP8c_testRsp,179,[],choice-response,Lab,636e065bbae6d6e5860db41b,2022-11-11 03:22:51-05:00,single_300ms_early_delay_2_tone_Lab_7,3141,104,EXP8c_maintaskTrials_2_l,maintaskTrials,83580,EXP8c,0,0,early,7
9,pass,6345b7f49677d36bd07c5a10,EXP8c_FJ,0,83580f8a886e834911f97058709a23a6ae5fc38fd5de045c2211491d55303283,3363.250174999237,False,keypress,EXP8c_testRsp,626,[],choice-response,Lap,636e065bbae6d6e5860db41b,2022-11-11 03:22:51-05:00,single_300ms_late_delay_2_tone_Lab_2,3661,105,EXP8c_maintaskTrials_2_s,maintaskTrials,83580,EXP8c,0,1,late,2
10,pass,6345b7f49677d36bd07c5a10,EXP8c_FJ,0,83580f8a886e834911f97058709a23a6ae5fc38fd5de045c2211491d55303283,3363.250174999237,False,keypress,EXP8c_testRsp,220,[],choice-response,Lab,636e065bbae6d6e5860db41b,2022-11-11 03:22:51-05:00,single_300ms_ontime_delay_2_tone_Lab_5,3208,106,EXP8c_maintaskTrials_2_l,maintaskTrials,83580,EXP8c,0,0,ontime,5
11,pass,6345b7f49677d36bd07c5a10,EXP8c_FJ,0,83580f8a886e834911f97058709a23a6ae5fc38fd5de045c2211491d55303283,3363.250174999237,False,keypress,EXP8c_testRsp,1785,[],choice-response,Lap,636e065bbae6d6e5860db41b,2022-11-11 03:22:51-05:00,single_300ms_late_delay_2_tone_Lab_5,4857,108,EXP8c_maintaskTrials_2_l,maintaskTrials,83580,EXP8c,0,1,late,5
12,pass,6345b7f49677d36bd07c5a10,EXP8c_FJ,0,83580f8a886e834911f97058709a23a6ae5fc38fd5de045c2211491d55303283,3363.250174999237,False,keypress,EXP8c_testRsp,416,[],choice-response,Lab,636e065bbae6d6e5860db41b,2022-11-11 03:22:51-05:00,single_300ms_ontime_delay_2_tone_Lab_8,3531,109,EXP8c_maintaskTrials_2_l,maintaskTrials,83580,EXP8c,0,0,ontime,8
13,pass,6345b7f49677d36bd07c5a10,EXP8c_FJ,0,83580f8a886e834911f97058709a23a6ae5fc38fd5de045c2211491d55303283,3363.250174999237,False,keypress,EXP8c_testRsp,173,[],choice-response,Lab,636e065bbae6d6e5860db41b,2022-11-11 03:22:51-05:00,single_300ms_early_delay_2_tone_Lab_3,3030,110,EXP8c_maintaskTrials_2_s,maintaskTrials,83580,EXP8c,0,0,early,3
14,pass,6345b7f49677d36bd07c5a10,EXP8c_FJ,0,83580f8a886e834911f97058709a23a6ae5fc38fd5de045c2211491d55303283,3363.250174999237,False,keypress,EXP8c_testRsp,900,[],choice-response,Lap,636e065bbae6d6e5860db41b,2022-11-11 03:22:51-05:00,single_300ms_early_delay_2_tone_Lab_1,3719,111,EXP8c_maintaskTrials_2_s,maintaskTrials,83580,EXP8c,0,1,early,1
15,pass,6345b7f49677d36bd07c5a10,EXP8c_FJ,0,83580f8a886e834911f97058709a23a6ae5fc38fd5de045c2211491d55303283,3363.250174999237,False,keypress,EXP8c_testRsp,225,[],choice-response,Lab,636e065bbae6d6e5860db41b,2022-11-11 03:22:51-05:00,single_300ms_late_delay_2_tone_Lab_4,3304,112,EXP8c_maintaskTrials_2_s,maintaskTrials,83580,EXP8c,0,0,late,4
16,pass,6345b7f49677d36bd07c5a10,EXP8c_FJ,0,83580f8a886e834911f97058709a23a6ae5fc38fd5de045c2211491d55303283,3363.250174999237,False,keypress,EXP8c_testRsp,762,[],choice-response,Lap,636e065bbae6d6e5860db41b,2022-11-11 03:22:51-05:00,single_300ms_ontime_delay_2_tone_Lab_7,3804,113,EXP8c_maintaskTrials_2_l,maintaskTrials,83580,EXP8c,0,1,ontime,7
17,pass,6345b7f49677d36bd07c5a10,EXP8c_FJ,0,83580f8a886e834911f97058709a23a6ae5fc38fd5de045c2211491d55303283,3363.250174999237,False,keypress,EXP8c_testRsp,1289,[],choice-response,Lab,636e065bbae6d6e5860db41b,2022-11-11 03:22:51-05:00,single_300ms_ontime_delay_2_tone_Lab_1,4189,114,EXP8c_maintaskTrials_2_s,maintaskTrials,83580,EXP8c,0,0,ontime,1
18,pass,6345b7f49677d36bd07c5a10,EXP8c_FJ,0,83580f8a886e834911f97058709a23a6ae5fc38fd5de045c2211491d55303283,3363.250174999237,False,keypress,EXP8c_testRsp,610,[],choice-response,Lab,636e065bbae6d6e5860db41b,2022-11-11 03:22:51-05:00,single_300ms_early_delay_2_tone_Lab_8,3578,115,EXP8c_maintaskTrials_2_l,maintaskTrials,83580,EXP8c,0,0,early,8
19,pass,6345b7f49677d36bd07c5a10,EXP8c_FJ,0,83580f8a886e834911f97058709a23a6ae5fc38fd5de045c2211491d55303283,3363.250174999237,False,keypress,EXP8c_testRsp,421,[],choice-response,Lap,636e065bbae6d6e5860db41b,2022-11-11 03:22:51-05:00,single_300ms_late_delay_2_tone_Lab_6,3480,116,EXP8c_maintaskTrials_2_l,maintaskTrials,83580,EXP8c,0,1,late,6
20,pass,6345b7f49677d36bd07c5a10,EXP8c_FJ,0,83580f8a886e834911f97058709a23a6ae5fc38fd5de045c2211491d55303283,3363.250174999237,False,keypress,EXP8c_testRsp,279,[],choice-response,Lap,636e065bbae6d6e5860db41b,2022-11-11 03:22:51-05:00,single_300ms_ontime_delay_2_tone_Lab_6,3249,117,EXP8c_maintaskTrials_2_l,maintaskTrials,83580,EXP8c,0,1,ontime,6
21,pass,6345b7f49677d36bd07c5a10,EXP8c_FJ,0,83580f8a886e834911f97058709a23a6ae5fc38fd5de045c2211491d55303283,3363.250174999237,False,keypress,EXP8c_testRsp,689,[],choice-response,Lap,636e065bbae6d6e5860db41b,2022-11-11 03:22:51-05:00,single_300ms_late_delay_2_tone_Lab_1,3696,118,EXP8c_maintaskTrials_2_s,maintaskTrials,83580,EXP8c,0,1,late,1
22,pass,6345b7f49677d36bd07c5a10,EXP8c_FJ,0,83580f8a886e834911f97058709a23a6ae5fc38fd5de045c2211491d55303283,3363.250174999237,False,keypress,EXP8c_testRsp,918,[],choice-response,Lap,636e065bbae6d6e5860db41b,2022-11-11 03:22:51-05:00,single_300ms_ontime_delay_2_tone_Lab_4,3882,120,EXP8c_maintaskTrials_2_s,maintaskTrials,83580,EXP8c,0,1,ontime,4
23,pass,6345b7f49677d36bd07c5a10,EXP8c_FJ,0,83580f8a886e834911f97058709a23a6ae5fc38fd5de045c2211491d55303283,3363.250174999237,False,keypress,EXP8c_testRsp,1958,[],choice-response,Lab,636e065bbae6d6e5860db41b,2022-11-11 03:22:51-05:00,single_300ms_early_delay_2_tone_Lab_6,4874,121,EXP8c_maintaskTrials_2_l,maintaskTrials,83580,EXP8c,0,0,early,6
24,pass,6345b7f49677d36bd07c5a10,EXP8c_FJ,0,83580f8a886e834911f97058709a23a6ae5fc38fd5de045c2211491d55303283,3363.250174999237,False,keypress,EXP8c_testRsp,524,[],choice-response,Lab,636e065bbae6d6e5860db41b,2022-11-11 03:22:51-05:00,single_300ms_late_delay_2_tone_Lab_8,3682,122,EXP8c_maintaskTrials_2_l,maintaskTrials,83580,EXP8c,0,0,late,8
25,pass,6345b7f49677d36bd07c5a10,EXP8c_FJ,0,83580f8a886e834911f97058709a23a6ae5fc38fd5de045c2211491d55303283,3363.250174999237,False,keypress,EXP8c_testRsp,457,[],choice-response,Lab,636e065bbae6d6e5860db41b,2022-11-11 03:22:51-05:00,single_300ms_late_delay_2_tone_Lab_7,3535,123,EXP8c_maintaskTrials_2_l,maintaskTrials,83580,EXP8c,0,0,late,7
26,pass,6345b7f49677d36bd07c5a10,EXP8c_FJ,0,83580f8a886e834911f97058709a23a6ae5fc38fd5de045c2211491d55303283,3363.250174999237,False,keypress,EXP8c_testRsp,512,[],choice-response,Lab,636e065bbae6d6e5860db41b,2022-11-11 03:22:51-05:00,single_300ms_early_delay_2_tone_Lab_5,3396,124,EXP8c_maintaskTrials_2_l,maintaskTrials,83580,EXP8c,0,0,early,5
27,pass,6345b7f49677d36bd07c5a10,EXP8c_FJ,0,83580f8a886e834911f97058709a23a6ae5fc38fd5de045c2211491d55303283,3363.250174999237,False,keypress,EXP8c_testRsp,451,[],choice-response,Lab,636e065bbae6d6e5860db41b,2022-11-11 03:22:51-05:00,single_300ms_ontime_delay_2_tone_Lab_3,3395,125,EXP8c_maintaskTrials_2_s,maintaskTrials,83580,EXP8c,0,0,ontime,3
28,pass,6345b7f49677d36bd07c5a10,EXP8c_FJ,0,83580f8a886e834911f97058709a23a6ae5fc38fd5de045c2211491d55303283,3363.250174999237,False,keypress,EXP8c_testRsp,1530,[],choice-response,Lab,636e065bbae6d6e5860db41b,2022-11-11 03:22:51-05:00,single_300ms_ontime_delay_2_tone_Lab_2,4460,126,EXP8c_maintaskTrials_2_s,maintaskTrials,83580,EXP8c,0,0,ontime,2
29,pass,6345b7f49677d36bd07c5a10,EXP8c_FJ,0,83580f8a886e834911f97058709a23a6ae5fc38fd5de045c2211491d55303283,3363.250174999237,False,keypress,EXP8c_testRsp,401,[],choice-response,Lab,636e065bbae6d6e5860db41b,2022-11-11 03:22:51-05:00,single_300ms_early_delay_2_tone_Lab_6,3325,127,EXP8c_maintaskTrials_2_l,maintaskTrials,83580,EXP8c,0,0,early,6
30,pass,6345b7f49677d36bd07c5a10,EXP8c_FJ,0,83580f8a886e834911f97058709a23a6ae5fc38fd5de045c2211491d55303283,3363.250174999237,False,keypress,EXP8c_testRsp,12106,[],choice-response,Lab,636e065bbae6d6e5860db41b,2022-11-11 03:22:51-05:00,single_300ms_ontime_delay_2_tone_Lab_7,15146,128,EXP8c_maintaskTrials_2_l,maintaskTrials,83580,EXP8c,0,0,ontime,7
31,pass,6345b7f49677d36bd07c5a10,EXP8c_FJ,0,83580f8a886e834911f97058709a23a6ae5fc38fd5de045c2211491d55303283,3363.250174999237,False,keypress,EXP8c_testRsp,395,[],choice-response,Lap,636e065bbae6d6e5860db41b,2022-11-11 03:22:51-05:00,single_300ms_late_delay_2_tone_Lab_1,3396,129,EXP8c_maintaskTrials_2_s,maintaskTrials,83580,EXP8c,0,1,late,1
32,pass,6345b7f49677d36bd07c5a10,EXP8c_FJ,0,83580f8a886e834911f97058709a23a6ae5fc38fd5de045c2211491d55303283,3363.250174999237,False,keypress,EXP8c_testRsp,662,[],choice-response,Lab,636e065bbae6d6e5860db41b,2022-11-11 03:22:51-05:00,single_300ms_late_delay_2_tone_Lab_3,3681,130,EXP8c_maintaskTrials_2_s,maintaskTrials,83580,EXP8c,0,0,late,3
33,pass,6345b7f49677d36bd07c5a10,EXP8c_FJ,0,83580f8a886e834911f97058709a23a6ae5fc38fd5de045c2211491d55303283,3363.250174999237,False,keypress,EXP8c_testRsp,1063,[],choice-response,Lap,636e065bbae6d6e5860db41b,2022-11-11 03:22:51-05:00,single_300ms_early_delay_2_tone_Lab_7,4000,132,EXP8c_maintaskTrials_2_l,maintaskTrials,83580,EXP8c,0,1,early,7
34,pass,6345b7f49677d36bd07c5a10,EXP8c_FJ,0,83580f8a886e834911f97058709a23a6ae5fc38fd5de045c2211491d55303283,3363.250174999237,False,keypress,EXP8c_testRsp,1612,[],choice-response,Lap,636e065bbae6d6e5860db41b,2022-11-11 03:22:51-05:00,single_300ms_early_delay_2_tone_Lab_1,4416,133,EXP8c_maintaskTrials_2_s,maintaskTrials,83580,EXP8c,0,1,early,1
35,pass,6345b7f49677d36bd07c5a10,EXP8c_FJ,0,83580f8a886e834911f97058709a23a6ae5fc38fd5de045c2211491d55303283,3363.250174999237,False,keypress,EXP8c_testRsp,444,[],choice-response,Lab,636e065bbae6d6e5860db41b,2022-11-11 03:22:51-05:00,single_300ms_ontime_delay_2_tone_Lab_6,3460,134,EXP8c_maintaskTrials_2_l,maintaskTrials,83580,EXP8c,0,0,ontime,6
36,pass,6345b7f49677d36bd07c5a10,EXP8c_FJ,0,83580f8a886e834911f97058709a23a6ae5fc38fd5de045c2211491d55303283,3363.250174999237,False,keypress,EXP8c_testRsp,598,[],choice-response,Lab,636e065bbae6d6e5860db41b,2022-11-11 03:22:51-05:00,single_300ms_ontime_delay_2_tone_Lab_5,3566,135,EXP8c_maintaskTrials_2_l,maintaskTrials,83580,EXP8c,0,0,ontime,5
37,pass,6345b7f49677d36bd07c5a10,EXP8c_FJ,0,83580f8a886e834911f97058709a23a6ae5fc38fd5de045c2211491d55303283,3363.250174999237,False,keypress,EXP8c_testRsp,686,[],choice-response,Lab,636e065bbae6d6e5860db41b,2022-11-11 03:22:51-05:00,single_300ms_early_delay_2_tone_Lab_2,3531,136,EXP8c_maintaskTrials_2_s,maintaskTrials,83580,EXP8c,0,0,early,2
38,pass,6345b7f49677d36bd07c5a10,EXP8c_FJ,0,83580f8a886e834911f97058709a23a6ae5fc38fd5de045c2211491d55303283,3363.250174999237,False,keypress,EXP8c_testRsp,381,[],choice-response,Lab,636e065bbae6d6e5860db41b,2022-11-11 03:22:51-05:00,single_300ms_ontime_delay_2_tone_Lab_8,3453,137,EXP8c_maintaskTrials_2_l,maintaskTrials,83580,EXP8c,0,0,ontime,8
39,pass,6345b7f49677d36bd07c5a10,EXP8c_FJ,0,83580f8a886e834911f97058709a23a6ae5fc38fd5de045c2211491d55303283,3363.250174999237,False,keypress,EXP8c_testRsp,821,[],choice-response,Lap,636e065bbae6d6e5860db41b,2022-11-11 03:22:51-05:00,single_300ms_late_delay_2_tone_Lab_2,3840,138,EXP8c_maintaskTrials_2_s,maintaskTrials,83580,EXP8c,0,1,late,2
40,pass,6345b7f49677d36bd07c5a10,EXP8c_FJ,0,83580f8a886e834911f97058709a23a6ae5fc38fd5de045c2211491d55303283,3363.250174999237,False,keypress,EXP8c_testRsp,548,[],choice-response,Lap,636e065bbae6d6e5860db41b,2022-11-11 03:22:51-05:00,single_300ms_ontime_delay_2_tone_Lab_1,3446,139,EXP8c_maintaskTrials_2_s,maintaskTrials,83580,EXP8c,0,1,ontime,1
41,pass,6345b7f49677d36bd07c5a10,EXP8c_FJ,0,83580f8a886e834911f97058709a23a6ae5fc38fd5de045c2211491d55303283,3363.250174999237,False,keypress,EXP8c_testRsp,3052,[],choice-response,Lab,636e065bbae6d6e5860db41b,2022-11-11 03:22:51-05:00,single_300ms_early_delay_2_tone_Lab_4,5946,140,EXP8c_maintaskTrials_2_s,maintaskTrials,83580,EXP8c,0,0,early,4
42,pass,6345b7f49677d36bd07c5a10,EXP8c_FJ,0,83580f8a886e834911f97058709a23a6ae5fc38fd5de045c2211491d55303283,3363.250174999237,False,keypress,EXP8c_testRsp,2344,[],choice-response,Lap,636e065bbae6d6e5860db41b,2022-11-11 03:22:51-05:00,single_300ms_late_delay_2_tone_Lab_4,5356,141,EXP8c_maintaskTrials_2_s,maintaskTrials,83580,EXP8c,0,1,late,4
43,pass,6345b7f49677d36bd07c5a10,EXP8c_FJ,0,83580f8a886e834911f97058709a23a6ae5fc38fd5de045c2211491d55303283,3363.250174999237,False,keypress,EXP8c_testRsp,1014,[],choice-response,Lab,636e065bbae6d6e5860db41b,2022-11-11 03:22:51-05:00,single_300ms_late_delay_2_tone_Lab_6,4117,142,EXP8c_maintaskTrials_2_l,maintaskTrials,83580,EXP8c,0,0,late,6
44,pass,6345b7f49677d36bd07c5a10,EXP8c_FJ,0,83580f8a886e834911f97058709a23a6ae5fc38fd5de045c2211491d55303283,3363.250174999237,False,keypress,EXP8c_testRsp,1073,[],choice-response,Lab,636e065bbae6d6e5860db41b,2022-11-11 03:22:51-05:00,single_300ms_early_delay_2_tone_Lab_8,4043,144,EXP8c_maintaskTrials_2_l,maintaskTrials,83580,EXP8c,0,0,early,8
45,pass,6345b7f49677d36bd07c5a10,EXP8c_FJ,0,83580f8a886e834911f97058709a23a6ae5fc38fd5de045c2211491d55303283,3363.250174999237,False,keypress,EXP8c_testRsp,600,[],choice-response,Lab,636e065bbae6d6e5860db41b,2022-11-11 03:22:51-05:00,single_300ms_ontime_delay_2_tone_Lab_4,3568,145,EXP8c_maintaskTrials_2_s,maintaskTrials,83580,EXP8c,0,0,ontime,4
46,pass,6345b7f49677d36bd07c5a10,EXP8c_FJ,0,83580f8a886e834911f97058709a23a6ae5fc38fd5de045c2211491d55303283,3363.250174999237,False,keypress,EXP8c_testRsp,491,[],choice-response,Lab,636e065bbae6d6e5860db41b,2022-11-11 03:22:51-05:00,single_300ms_late_delay_2_tone_Lab_5,3567,146,EXP8c_maintaskTrials_2_l,maintaskTrials,83580,EXP8c,0,0,late,5
47,pass,6345b7f49677d36bd07c5a10,EXP8c_FJ,0,83580f8a886e834911f97058709a23a6ae5fc38fd5de045c2211491d55303283,3363.250174999237,False,keypress,EXP8c_testRsp,539,[],choice-response,Lap,636e065bbae6d6e5860db41b,2022-11-11 03:22:51-05:00,single_300ms_early_delay_2_tone_Lab_3,3378,147,EXP8c_maintaskTrials_2_s,maintaskTrials,83580,EXP8c,0,1,early,3
48,pass,6345b7f49677d36bd07c5a10,EXP8c_FJ,0,83580f8a886e834911f97058709a23a6ae5fc38fd5de045c2211491d55303283,3363.250174999237,False,keypress,EXP8c_testRsp,337,[],choice-response,Lab,636e065bbae6d6e5860db41b,2022-11-11 03:22:51-05:00,single_300ms_late_delay_2_tone_Lab_3,3384,148,EXP8c_maintaskTrials_2_s,maintaskTrials,83580,EXP8c,0,0,late,3
49,pass,6345b7f49677d36bd07c5a10,EXP8c_FJ,0,83580f8a886e834911f97058709a23a6ae5fc38fd5de045c2211491d55303283,3363.250174999237,False,keypress,EXP8c_testRsp,480,[],choice-response,Lab,636e065bbae6d6e5860db41b,2022-11-11 03:22:51-05:00,single_300ms_early_delay_2_tone_Lab_1,3298,149,EXP8c_maintaskTrials_2_s,maintaskTrials,83580,EXP8c,0,0,early,1
50,pass,6345b7f49677d36bd07c5a10,EXP8c_FJ,0,83580f8a886e834911f97058709a23a6ae5fc38fd5de045c2211491d55303283,3363.250174999237,False,keypress,EXP8c_testRsp,390,[],choice-response,Lab,636e065bbae6d6e5860db41b,2022-11-11 03:22:51-05:00,single_300ms_early_delay_2_tone_Lab_7,3309,150,EXP8c_maintaskTrials_2_l,maintaskTrials,83580,EXP8c,0,0,early,7
51,pass,6345b7f49677d36bd07c5a10,EXP8c_FJ,0,83580f8a886e834911f97058709a23a6ae5fc38fd5de045c2211491d55303283,3363.250174999237,False,keypress,EXP8c_testRsp,383,[],choice-response,Lab,636e065bbae6d6e5860db41b,2022-11-11 03:22:51-05:00,single_300ms_early_delay_2_tone_Lab_4,3217,151,EXP8c_maintaskTrials_2_s,maintaskTrials,83580,EXP8c,0,0,early,4
52,pass,6345b7f49677d36bd07c5a10,EXP8c_FJ,0,83580f8a886e834911f97058709a23a6ae5fc38fd5de045c2211491d55303283,3363.250174999237,False,keypress,EXP8c_testRsp,673,[],choice-response,Lap,636e065bbae6d6e5860db41b,2022-11-11 03:22:51-05:00,single_300ms_ontime_delay_2_tone_Lab_5,3650,152,EXP8c_maintaskTrials_2_l,maintaskTrials,83580,EXP8c,0,1,ontime,5
53,pass,6345b7f49677d36bd07c5a10,EXP8c_FJ,0,83580f8a886e834911f97058709a23a6ae5fc38fd5de045c2211491d55303283,3363.250174999237,False,keypress,EXP8c_testRsp,516,[],choice-response,Lab,636e065bbae6d6e5860db41b,2022-11-11 03:22:51-05:00,single_300ms_ontime_delay_2_tone_Lab_3,3446,153,EXP8c_maintaskTrials_2_s,maintaskTrials,83580,EXP8c,0,0,ontime,3
54,pass,6345b7f49677d36bd07c5a10,EXP8c_FJ,0,83580f8a886e834911f97058709a23a6ae5fc38fd5de045c2211491d55303283,3363.250174999237,False,keypress,EXP8c_testRsp,527,[],choice-response,Lab,636e065bbae6d6e5860db41b,2022-11-11 03:22:51-05:00,single_300ms_late_delay_2_tone_Lab_6,3628,154,EXP8c_maintaskTrials_2_l,maintaskTrials,83580,EXP8c,0,0,late,6
55,pass,6345b7f49677d36bd07c5a10,EXP8c_FJ,0,83580f8a886e834911f97058709a23a6ae5fc38fd5de045c2211491d55303283,3363.250174999237,False,keypress,EXP8c_testRsp,429,[],choice-response,Lap,636e065bbae6d6e5860db41b,2022-11-11 03:22:51-05:00,single_300ms_early_delay_2_tone_Lab_2,3287,156,EXP8c_maintaskTrials_2_s,maintaskTrials,83580,EXP8c,0,1,early,2
56,pass,6345b7f49677d36bd07c5a10,EXP8c_FJ,0,83580f8a886e834911f97058709a23a6ae5fc38fd5de045c2211491d55303283,3363.250174999237,False,keypress,EXP8c_testRsp,255,[],choice-response,Lap,636e065bbae6d6e5860db41b,2022-11-11 03:22:51-05:00,single_300ms_late_delay_2_tone_Lab_7,3370,157,EXP8c_maintaskTrials_2_l,maintaskTrials,83580,EXP8c,0,1,late,7
57,pass,6345b7f49677d36bd07c5a10,EXP8c_FJ,0,83580f8a886e834911f97058709a23a6ae5fc38fd5de045c2211491d55303283,3363.250174999237,False,keypress,EXP8c_testRsp,389,[],choice-response,Lab,636e065bbae6d6e5860db41b,2022-11-11 03:22:51-05:00,single_300ms_early_delay_2_tone_Lab_6,3296,158,EXP8c_maintaskTrials_2_l,maintaskTrials,83580,EXP8c,0,0,early,6
58,pass,6345b7f49677d36bd07c5a10,EXP8c_FJ,0,83580f8a886e834911f97058709a23a6ae5fc38fd5de045c2211491d55303283,3363.250174999237,False,keypress,EXP8c_testRsp,339,[],choice-response,Lap,636e065bbae6d6e5860db41b,2022-11-11 03:22:51-05:00,single_300ms_late_delay_2_tone_Lab_2,3360,159,EXP8c_maintaskTrials_2_s,maintaskTrials,83580,EXP8c,0,1,late,2
59,pass,6345b7f49677d36bd07c5a10,EXP8c_FJ,0,83580f8a886e834911f97058709a23a6ae5fc38fd5de045c2211491d55303283,3363.250174999237,False,keypress,EXP8c_testRsp,454,[],choice-response,Lap,636e065bbae6d6e5860db41b,2022-11-11 03:22:51-05:00,single_300ms_late_delay_2_tone_Lab_5,3531,160,EXP8c_maintaskTrials_2_l,maintaskTrials,83580,EXP8c,0,1,late,5
60,pass,6345b7f49677d36bd07c5a10,EXP8c_FJ,0,83580f8a886e834911f97058709a23a6ae5fc38fd5de045c2211491d55303283,3363.250174999237,False,keypress,EXP8c_testRsp,336,[],choice-response,Lap,636e065bbae6d6e5860db41b,2022-11-11 03:22:51-05:00,single_300ms_ontime_delay_2_tone_Lab_1,3256,161,EXP8c_maintaskTrials_2_s,maintaskTrials,83580,EXP8c,0,1,ontime,1
61,pass,6345b7f49677d36bd07c5a10,EXP8c_FJ,0,83580f8a886e834911f97058709a23a6ae5fc38fd5de045c2211491d55303283,3363.250174999237,False,keypress,EXP8c_testRsp,211,[],choice-response,Lap,636e065bbae6d6e5860db41b,2022-11-11 03:22:51-05:00,single_300ms_late_delay_2_tone_Lab_4,3288,162,EXP8c_maintaskTrials_2_s,maintaskTrials,83580,EXP8c,0,1,late,4
62,pass,6345b7f49677d36bd07c5a10,EXP8c_FJ,0,83580f8a886e834911f97058709a23a6ae5fc38fd5de045c2211491d55303283,3363.250174999237,False,keypress,EXP8c_testRsp,1212,[],choice-response,Lab,636e065bbae6d6e5860db41b,2022-11-11 03:22:51-05:00,single_300ms_ontime_delay_2_tone_Lab_4,4182,163,EXP8c_maintaskTrials_2_s,maintaskTrials,83580,EXP8c,0,0,ontime,4
63,pass,6345b7f49677d36bd07c5a10,EXP8c_FJ,0,83580f8a886e834911f97058709a23a6ae5fc38fd5de045c2211491d55303283,3363.250174999237,False,keypress,EXP8c_testRsp,578,[],choice-response,Lap,636e065bbae6d6e5860db41b,2022-11-11 03:22:51-05:00,single_300ms_ontime_delay_2_tone_Lab_2,3518,164,EXP8c_maintaskTrials_2_s,maintaskTrials,83580,EXP8c,0,1,ontime,2
64,pass,6345b7f49677d36bd07c5a10,EXP8c_FJ,0,83580f8a886e834911f97058709a23a6ae5fc38fd5de045c2211491d55303283,3363.250174999237,False,keypress,EXP8c_testRsp,1216,[],choice-response,Lap,636e065bbae6d6e5860db41b,2022-11-11 03:22:51-05:00,single_300ms_early_delay_2_tone_Lab_5,4122,165,EXP8c_maintaskTrials_2_l,maintaskTrials,83580,EXP8c,0,1,early,5
65,pass,6345b7f49677d36bd07c5a10,EXP8c_FJ,0,83580f8a886e834911f97058709a23a6ae5fc38fd5de045c2211491d55303283,3363.250174999237,False,keypress,EXP8c_testRsp,493,[],choice-response,Lab,636e065bbae6d6e5860db41b,2022-11-11 03:22:51-05:00,single_300ms_ontime_delay_2_tone_Lab_6,3471,166,EXP8c_maintaskTrials_2_l,maintaskTrials,83580,EXP8c,0,0,ontime,6
66,pass,6345b7f49677d36bd07c5a10,EXP8c_FJ,0,83580f8a886e834911f97058709a23a6ae5fc38fd5de045c2211491d55303283,3363.250174999237,False,keypress,EXP8c_testRsp,1099,[],choice-response,Lap,636e065bbae6d6e5860db41b,2022-11-11 03:22:51-05:00,single_300ms_late_delay_2_tone_Lab_1,4166,168,EXP8c_maintaskTrials_2_s,maintaskTrials,83580,EXP8c,0,1,late,1
67,pass,6345b7f49677d36bd07c5a10,EXP8c_FJ,0,83580f8a886e834911f97058709a23a6ae5fc38fd5de045c2211491d55303283,3363.250174999237,False,keypress,EXP8c_testRsp,290,[],choice-response,Lab,636e065bbae6d6e5860db41b,2022-11-11 03:22:51-05:00,single_300ms_early_delay_2_tone_Lab_3,3163,169,EXP8c_maintaskTrials_2_s,maintaskTrials,83580,EXP8c,0,0,early,3
68,pass,6345b7f49677d36bd07c5a10,EXP8c_FJ,0,83580f8a886e834911f97058709a23a6ae5fc38fd5de045c2211491d55303283,3363.250174999237,False,keypress,EXP8c_testRsp,1056,[],choice-response,Lab,636e065bbae6d6e5860db41b,2022-11-11 03:22:51-05:00,single_300ms_late_delay_2_tone_Lab_8,4213,170,EXP8c_maintaskTrials_2_l,maintaskTrials,83580,EXP8c,0,0,late,8
69,pass,6345b7f49677d36bd07c5a10,EXP8c_FJ,0,83580f8a886e834911f97058709a23a6ae5fc38fd5de045c2211491d55303283,3363.250174999237,False,keypress,EXP8c_testRsp,3498,[],choice-response,Lab,636e065bbae6d6e5860db41b,2022-11-11 03:22:51-05:00,single_300ms_ontime_delay_2_tone_Lab_8,6549,171,EXP8c_maintaskTrials_2_l,maintaskTrials,83580,EXP8c,0,0,ontime,8
70,pass,6345b7f49677d36bd07c5a10,EXP8c_FJ,0,83580f8a886e834911f97058709a23a6ae5fc38fd5de045c2211491d55303283,3363.250174999237,False,keypress,EXP8c_testRsp,557,[],choice-response,Lab,636e065bbae6d6e5860db41b,2022-11-11 03:22:51-05:00,single_300ms_early_delay_2_tone_Lab_8,3512,172,EXP8c_maintaskTrials_2_l,maintaskTrials,83580,EXP8c,0,0,early,8
71,pass,6345b7f49677d36bd07c5a10,EXP8c_FJ,0,83580f8a886e834911f97058709a23a6ae5fc38fd5de045c2211491d55303283,3363.250174999237,False,keypress,EXP8c_testRsp,1299,[],choice-response,Lab,636e065bbae6d6e5860db41b,2022-11-11 03:22:51-05:00,single_300ms_ontime_delay_2_tone_Lab_7,4331,173,EXP8c_maintaskTrials_2_l,maintaskTrials,83580,EXP8c,0,0,ontime,7
72,pass,6345b7f49677d36bd07c5a10,EXP8c_FJ,0,83580f8a886e834911f97058709a23a6ae5fc38fd5de045c2211491d55303283,3363.250174999237,False,keypress,EXP8c_testRsp,281,[],choice-response,Lab,636e065bbae6d6e5860db41b,2022-11-11 03:22:51-05:00,single_300ms_late_delay_2_tone_Lab_4,3346,174,EXP8c_maintaskTrials_2_s,maintaskTrials,83580,EXP8c,0,0,late,4
73,pass,6345b7f49677d36bd07c5a10,EXP8c_FJ,0,83580f8a886e834911f97058709a23a6ae5fc38fd5de045c2211491d55303283,3363.250174999237,False,keypress,EXP8c_testRsp,573,[],choice-response,Lab,636e065bbae6d6e5860db41b,2022-11-11 03:22:51-05:00,single_300ms_early_delay_2_tone_Lab_7,3523,175,EXP8c_maintaskTrials_2_l,maintaskTrials,83580,EXP8c,0,0,early,7
74,pass,6345b7f49677d36bd07c5a10,EXP8c_FJ,0,83580f8a886e834911f97058709a23a6ae5fc38fd5de045c2211491d55303283,3363.250174999237,False,keypress,EXP8c_testRsp,310,[],choice-response,Lab,636e065bbae6d6e5860db41b,2022-11-11 03:22:51-05:00,single_300ms_ontime_delay_2_tone_Lab_7,3317,176,EXP8c_maintaskTrials_2_l,maintaskTrials,83580,EXP8c,0,0,ontime,7
75,pass,6345b7f49677d36bd07c5a10,EXP8c_FJ,0,83580f8a886e834911f97058709a23a6ae5fc38fd5de045c2211491d55303283,3363.250174999237,False,keypress,EXP8c_testRsp,470,[],choice-response,Lab,636e065bbae6d6e5860db41b,2022-11-11 03:22:51-05:00,single_300ms_early_delay_2_tone_Lab_4,3331,177,EXP8c_maintaskTrials_2_s,maintaskTrials,83580,EXP8c,0,0,early,4
76,pass,6345b7f49677d36bd07c5a10,EXP8c_FJ,0,83580f8a886e834911f97058709a23a6ae5fc38fd5de045c2211491d55303283,3363.250174999237,False,keypress,EXP8c_testRsp,543,[],choice-response,Lab,636e065bbae6d6e5860db41b,2022-11-11 03:22:51-05:00,single_300ms_early_delay_2_tone_Lab_3,3432,178,EXP8c_maintaskTrials_2_s,maintaskTrials,83580,EXP8c,0,0,early,3
77,pass,6345b7f49677d36bd07c5a10,EXP8c_FJ,0,83580f8a886e834911f97058709a23a6ae5fc38fd5de045c2211491d55303283,3363.250174999237,False,keypress,EXP8c_testRsp,309,[],choice-response,Lap,636e065bbae6d6e5860db41b,2022-11-11 03:22:51-05:00,single_300ms_late_delay_2_tone_Lab_2,3318,180,EXP8c_maintaskTrials_2_s,maintaskTrials,83580,EXP8c,0,1,late,2
78,pass,6345b7f49677d36bd07c5a10,EXP8c_FJ,0,83580f8a886e834911f97058709a23a6ae5fc38fd5de045c2211491d55303283,3363.250174999237,False,keypress,EXP8c_testRsp,365,[],choice-response,Lap,636e065bbae6d6e5860db41b,2022-11-11 03:22:51-05:00,single_300ms_early_delay_2_tone_Lab_1,3196,181,EXP8c_maintaskTrials_2_s,maintaskTrials,83580,EXP8c,0,1,early,1
79,pass,6345b7f49677d36bd07c5a10,EXP8c_FJ,0,83580f8a886e834911f97058709a23a6ae5fc38fd5de045c2211491d55303283,3363.250174999237,False,keypress,EXP8c_testRsp,87,[],choice-response,Lab,636e065bbae6d6e5860db41b,2022-11-11 03:22:51-05:00,single_300ms_early_delay_2_tone_Lab_6,3003,182,EXP8c_maintaskTrials_2_l,maintaskTrials,83580,EXP8c,0,0,early,6
80,pass,6345b7f49677d36bd07c5a10,EXP8c_FJ,0,83580f8a886e834911f97058709a23a6ae5fc38fd5de045c2211491d55303283,3363.250174999237,False,keypress,EXP8c_testRsp,348,[],choice-response,Lab,636e065bbae6d6e5860db41b,2022-11-11 03:22:51-05:00,single_300ms_late_delay_2_tone_Lab_7,3474,183,EXP8c_maintaskTrials_2_l,maintaskTrials,83580,EXP8c,0,0,late,7
81,pass,6345b7f49677d36bd07c5a10,EXP8c_FJ,0,83580f8a886e834911f97058709a23a6ae5fc38fd5de045c2211491d55303283,3363.250174999237,False,keypress,EXP8c_testRsp,334,[],choice-response,Lap,636e065bbae6d6e5860db41b,2022-11-11 03:22:51-05:00,single_300ms_early_delay_2_tone_Lab_2,3177,184,EXP8c_maintaskTrials_2_s,maintaskTrials,83580,EXP8c,0,1,early,2
82,pass,6345b7f49677d36bd07c5a10,EXP8c_FJ,0,83580f8a886e834911f97058709a23a6ae5fc38fd5de045c2211491d55303283,3363.250174999237,False,keypress,EXP8c_testRsp,557,[],choice-response,Lap,636e065bbae6d6e5860db41b,2022-11-11 03:22:51-05:00,single_300ms_ontime_delay_2_tone_Lab_1,3477,185,EXP8c_maintaskTrials_2_s,maintaskTrials,83580,EXP8c,0,1,ontime,1
83,pass,6345b7f49677d36bd07c5a10,EXP8c_FJ,0,83580f8a886e834911f97058709a23a6ae5fc38fd5de045c2211491d55303283,3363.250174999237,False,keypress,EXP8c_testRsp,386,[],choice-response,Lap,636e065bbae6d6e5860db41b,2022-11-11 03:22:51-05:00,single_300ms_ontime_delay_2_tone_Lab_5,3400,186,EXP8c_maintaskTrials_2_l,maintaskTrials,83580,EXP8c,0,1,ontime,5
84,pass,6345b7f49677d36bd07c5a10,EXP8c_FJ,0,83580f8a886e834911f97058709a23a6ae5fc38fd5de045c2211491d55303283,3363.250174999237,False,keypress,EXP8c_testRsp,368,[],choice-response,Lap,636e065bbae6d6e5860db41b,2022-11-11 03:22:51-05:00,single_300ms_late_delay_2_tone_Lab_1,3365,187,EXP8c_maintaskTrials_2_s,maintaskTrials,83580,EXP8c,0,1,late,1
85,pass,6345b7f49677d36bd07c5a10,EXP8c_FJ,0,83580f8a886e834911f97058709a23a6ae5fc38fd5de045c2211491d55303283,3363.250174999237,False,keypress,EXP8c_testRsp,133,[],choice-response,Lab,636e065bbae6d6e5860db41b,2022-11-11 03:22:51-05:00,single_300ms_ontime_delay_2_tone_Lab_6,3127,188,EXP8c_maintaskTrials_2_l,maintaskTrials,83580,EXP8c,0,0,ontime,6
86,pass,6345b7f49677d36bd07c5a10,EXP8c_FJ,0,83580f8a886e834911f97058709a23a6ae5fc38fd5de045c2211491d55303283,3363.250174999237,False,keypress,EXP8c_testRsp,347,[],choice-response,Lab,636e065bbae6d6e5860db41b,2022-11-11 03:22:51-05:00,single_300ms_ontime_delay_2_tone_Lab_8,3408,189,EXP8c_maintaskTrials_2_l,maintaskTrials,83580,EXP8c,0,0,ontime,8
87,pass,6345b7f49677d36bd07c5a10,EXP8c_FJ,0,83580f8a886e834911f97058709a23a6ae5fc38fd5de045c2211491d55303283,3363.250174999237,False,keypress,EXP8c_testRsp,211,[],choice-response,Lab,636e065bbae6d6e5860db41b,2022-11-11 03:22:51-05:00,single_300ms_early_delay_2_tone_Lab_5,3103,190,EXP8c_maintaskTrials_2_l,maintaskTrials,83580,EXP8c,0,0,early,5
88,pass,6345b7f49677d36bd07c5a10,EXP8c_FJ,0,83580f8a886e834911f97058709a23a6ae5fc38fd5de045c2211491d55303283,3363.250174999237,False,keypress,EXP8c_testRsp,1399,[],choice-response,Lap,636e065bbae6d6e5860db41b,2022-11-11 03:22:51-05:00,single_300ms_late_delay_2_tone_Lab_5,4488,192,EXP8c_maintaskTrials_2_l,maintaskTrials,83580,EXP8c,0,1,late,5
89,pass,6345b7f49677d36bd07c5a10,EXP8c_FJ,0,83580f8a886e834911f97058709a23a6ae5fc38fd5de045c2211491d55303283,3363.250174999237,False,keypress,EXP8c_testRsp,441,[],choice-response,Lap,636e065bbae6d6e5860db41b,2022-11-11 03:22:51-05:00,single_300ms_ontime_delay_2_tone_Lab_2,3382,193,EXP8c_maintaskTrials_2_s,maintaskTrials,83580,EXP8c,0,1,ontime,2
90,pass,6345b7f49677d36bd07c5a10,EXP8c_FJ,0,83580f8a886e834911f97058709a23a6ae5fc38fd5de045c2211491d55303283,3363.250174999237,False,keypress,EXP8c_testRsp,208,[],choice-response,Lap,636e065bbae6d6e5860db41b,2022-11-11 03:22:51-05:00,single_300ms_early_delay_2_tone_Lab_8,3181,194,EXP8c_maintaskTrials_2_l,maintaskTrials,83580,EXP8c,0,1,early,8
91,pass,6345b7f49677d36bd07c5a10,EXP8c_FJ,0,83580f8a886e834911f97058709a23a6ae5fc38fd5de045c2211491d55303283,3363.250174999237,False,keypress,EXP8c_testRsp,511,[],choice-response,Lap,636e065bbae6d6e5860db41b,2022-11-11 03:22:51-05:00,single_300ms_late_delay_2_tone_Lab_3,3527,195,EXP8c_maintaskTrials_2_s,maintaskTrials,83580,EXP8c,0,1,late,3
92,pass,6345b7f49677d36bd07c5a10,EXP8c_FJ,0,83580f8a886e834911f97058709a23a6ae5fc38fd5de045c2211491d55303283,3363.250174999237,False,keypress,EXP8c_testRsp,627,[],choice-response,Lap,636e065bbae6d6e5860db41b,2022-11-11 03:22:51-05:00,single_300ms_ontime_delay_2_tone_Lab_3,3571,196,EXP8c_maintaskTrials_2_s,maintaskTrials,83580,EXP8c,0,1,ontime,3
93,pass,6345b7f49677d36bd07c5a10,EXP8c_FJ,0,83580f8a886e834911f97058709a23a6ae5fc38fd5de045c2211491d55303283,3363.250174999237,False,keypress,EXP8c_testRsp,332,[],choice-response,Lab,636e065bbae6d6e5860db41b,2022-11-11 03:22:51-05:00,single_300ms_late_delay_2_tone_Lab_8,3457,197,EXP8c_maintaskTrials_2_l,maintaskTrials,83580,EXP8c,0,0,late,8
94,pass,6345b7f49677d36bd07c5a10,EXP8c_FJ,0,83580f8a886e834911f97058709a23a6ae5fc38fd5de045c2211491d55303283,3363.250174999237,False,keypress,EXP8c_testRsp,209,[],choice-response,Lab,636e065bbae6d6e5860db41b,2022-11-11 03:22:51-05:00,single_300ms_ontime_delay_2_tone_Lab_4,3172,198,EXP8c_maintaskTrials_2_s,maintaskTrials,83580,EXP8c,0,0,ontime,4
95,pass,6345b7f49677d36bd07c5a10,EXP8c_FJ,0,83580f8a886e834911f97058709a23a6ae5fc38fd5de045c2211491d55303283,3363.250174999237,False,keypress,EXP8c_testRsp,334,[],choice-response,Lab,636e065bbae6d6e5860db41b,2022-11-11 03:22:51-05:00,single_300ms_late_delay_2_tone_Lab_6,3435,199,EXP8c_maintaskTrials_2_l,maintaskTrials,83580,EXP8c,0,0,late,6
96,pass,6345b7f49677d36bd07c5a10,EXP8c_FJ,0,83580f8a886e834911f97058709a23a6ae5fc38fd5de045c2211491d55303283,3363.250174999237,False,keypress,EXP8c_testRsp,190,[],choice-response,Lab,636e065bbae6d6e5860db41b,2022-11-11 03:22:51-05:00,single_300ms_early_delay_2_tone_Lab_5,3094,200,EXP8c_maintaskTrials_2_l,maintaskTrials,83580,EXP8c,0,0,early,5
97,pass,6345b7f49677d36bd07c5a10,EXP8c_FJ,0,83580f8a886e834911f97058709a23a6ae5fc38fd5de045c2211491d55303283,3363.250174999237,False,keypress,EXP8c_testRsp,127,[],choice-response,Lab,636e065bbae6d6e5860db41b,2022-11-11 03:22:51-05:00,single_300ms_early_delay_2_tone_Lab_2,3031,201,EXP8c_maintaskTrials_2_s,maintaskTrials,83580,EXP8c,0,0,early,2
98,pass,6345b7f49677d36bd07c5a10,EXP8c_FJ,0,83580f8a886e834911f97058709a23a6ae5fc38fd5de045c2211491d55303283,3363.250174999237,False,keypress,EXP8c_testRsp,61,[],choice-response,Lab,636e065bbae6d6e5860db41b,2022-11-11 03:22:51-05:00,single_300ms_early_delay_2_tone_Lab_1,2886,202,EXP8c_maintaskTrials_2_s,maintaskTrials,83580,EXP8c,0,0,early,1
99,pass,6345b7f49677d36bd07c5a10,EXP8c_FJ,0,83580f8a886e834911f97058709a23a6ae5fc38fd5de045c2211491d55303283,3363.250174999237,False,keypress,EXP8c_testRsp,203,[],choice-response,Lab,636e065bbae6d6e5860db41b,2022-11-11 03:22:51-05:00,single_300ms_ontime_delay_2_tone_Lab_7,3234,204,EXP8c_maintaskTrials_2_l,maintaskTrials,83580,EXP8c,0,0,ontime,7
100,pass,6345b7f49677d36bd07c5a10,EXP8c_FJ,0,83580f8a886e834911f97058709a23a6ae5fc38fd5de045c2211491d55303283,3363.250174999237,False,keypress,EXP8c_testRsp,86,[],choice-response,Lab,636e065bbae6d6e5860db41b,2022-11-11 03:22:51-05:00,single_300ms_early_delay_2_tone_Lab_7,3020,205,EXP8c_maintaskTrials_2_l,maintaskTrials,83580,EXP8c,0,0,early,7
101,pass,6345b7f49677d36bd07c5a10,EXP8c_FJ,0,83580f8a886e834911f97058709a23a6ae5fc38fd5de045c2211491d55303283,3363.250174999237,False,keypress,EXP8c_testRsp,107,[],choice-response,Lab,636e065bbae6d6e5860db41b,2022-11-11 03:22:51-05:00,single_300ms_ontime_delay_2_tone_Lab_8,3172,206,EXP8c_maintaskTrials_2_l,maintaskTrials,83580,EXP8c,0,0,ontime,8
102,pass,6345b7f49677d36bd07c5a10,EXP8c_FJ,0,83580f8a886e834911f97058709a23a6ae5fc38fd5de045c2211491d55303283,3363.250174999237,False,keypress,EXP8c_testRsp,233,[],choice-response,Lab,636e065bbae6d6e5860db41b,2022-11-11 03:22:51-05:00,single_300ms_late_delay_2_tone_Lab_7,3356,207,EXP8c_maintaskTrials_2_l,maintaskTrials,83580,EXP8c,0,0,late,7
103,pass,6345b7f49677d36bd07c5a10,EXP8c_FJ,0,83580f8a886e834911f97058709a23a6ae5fc38fd5de045c2211491d55303283,3363.250174999237,False,keypress,EXP8c_testRsp,308,[],choice-response,Lab,636e065bbae6d6e5860db41b,2022-11-11 03:22:51-05:00,single_300ms_ontime_delay_2_tone_Lab_2,3232,208,EXP8c_maintaskTrials_2_s,maintaskTrials,83580,EXP8c,0,0,ontime,2
104,pass,6345b7f49677d36bd07c5a10,EXP8c_FJ,0,83580f8a886e834911f97058709a23a6ae5fc38fd5de045c2211491d55303283,3363.250174999237,False,keypress,EXP8c_testRsp,240,[],choice-response,Lab,636e065bbae6d6e5860db41b,2022-11-11 03:22:51-05:00,single_300ms_ontime_delay_2_tone_Lab_3,3195,209,EXP8c_maintaskTrials_2_s,maintaskTrials,83580,EXP8c,0,0,ontime,3
105,pass,6345b7f49677d36bd07c5a10,EXP8c_FJ,0,83580f8a886e834911f97058709a23a6ae5fc38fd5de045c2211491d55303283,3363.250174999237,False,keypress,EXP8c_testRsp,651,[],choice-response,Lap,636e065bbae6d6e5860db41b,2022-11-11 03:22:51-05:00,single_300ms_early_delay_2_tone_Lab_6,3603,210,EXP8c_maintaskTrials_2_l,maintaskTrials,83580,EXP8c,0,1,early,6
106,pass,6345b7f49677d36bd07c5a10,EXP8c_FJ,0,83580f8a886e834911f97058709a23a6ae5fc38fd5de045c2211491d55303283,3363.250174999237,False,keypress,EXP8c_testRsp,221,[],choice-response,Lab,636e065bbae6d6e5860db41b,2022-11-11 03:22:51-05:00,single_300ms_early_delay_2_tone_Lab_3,3071,211,EXP8c_maintaskTrials_2_s,maintaskTrials,83580,EXP8c,0,0,early,3
107,pass,6345b7f49677d36bd07c5a10,EXP8c_FJ,0,83580f8a886e834911f97058709a23a6ae5fc38fd5de045c2211491d55303283,3363.250174999237,False,keypress,EXP8c_testRsp,150,[],choice-response,Lab,636e065bbae6d6e5860db41b,2022-11-11 03:22:51-05:00,single_300ms_late_delay_2_tone_Lab_1,3171,212,EXP8c_maintaskTrials_2_s,maintaskTrials,83580,EXP8c,0,0,late,1
108,pass,6345b7f49677d36bd07c5a10,EXP8c_FJ,0,83580f8a886e834911f97058709a23a6ae5fc38fd5de045c2211491d55303283,3363.250174999237,False,keypress,EXP8c_testRsp,140,[],choice-response,Lab,636e065bbae6d6e5860db41b,2022-11-11 03:22:51-05:00,single_300ms_ontime_delay_2_tone_Lab_5,3095,213,EXP8c_maintaskTrials_2_l,maintaskTrials,83580,EXP8c,0,0,ontime,5
109,pass,6345b7f49677d36bd07c5a10,EXP8c_FJ,0,83580f8a886e834911f97058709a23a6ae5fc38fd5de045c2211491d55303283,3363.250174999237,False,keypress,EXP8c_testRsp,312,[],choice-response,Lap,636e065bbae6d6e5860db41b,2022-11-11 03:22:51-05:00,single_300ms_late_delay_2_tone_Lab_3,3343,214,EXP8c_maintaskTrials_2_s,maintaskTrials,83580,EXP8c,0,1,late,3
110,pass,6345b7f49677d36bd07c5a10,EXP8c_FJ,0,83580f8a886e834911f97058709a23a6ae5fc38fd5de045c2211491d55303283,3363.250174999237,False,keypress,EXP8c_testRsp,376,[],choice-response,Lab,636e065bbae6d6e5860db41b,2022-11-11 03:22:51-05:00,single_300ms_late_delay_2_tone_Lab_4,3395,216,EXP8c_maintaskTrials_2_s,maintaskTrials,83580,EXP8c,0,0,late,4
111,pass,6345b7f49677d36bd07c5a10,EXP8c_FJ,0,83580f8a886e834911f97058709a23a6ae5fc38fd5de045c2211491d55303283,3363.250174999237,False,keypress,EXP8c_testRsp,710,[],choice-response,Lab,636e065bbae6d6e5860db41b,2022-11-11 03:22:51-05:00,single_300ms_late_delay_2_tone_Lab_6,3814,217,EXP8c_maintaskTrials_2_l,maintaskTrials,83580,EXP8c,0,0,late,6
112,pass,6345b7f49677d36bd07c5a10,EXP8c_FJ,0,83580f8a886e834911f97058709a23a6ae5fc38fd5de045c2211491d55303283,3363.250174999237,False,keypress,EXP8c_testRsp,354,[],choice-response,Lab,636e065bbae6d6e5860db41b,2022-11-11 03:22:51-05:00,single_300ms_late_delay_2_tone_Lab_8,3493,218,EXP8c_maintaskTrials_2_l,maintaskTrials,83580,EXP8c,0,0,late,8
113,pass,6345b7f49677d36bd07c5a10,EXP8c_FJ,0,83580f8a886e834911f97058709a23a6ae5fc38fd5de045c2211491d55303283,3363.250174999237,False,keypress,EXP8c_testRsp,577,[],choice-response,Lap,636e065bbae6d6e5860db41b,2022-11-11 03:22:51-05:00,single_300ms_early_delay_2_tone_Lab_4,3454,219,EXP8c_maintaskTrials_2_s,maintaskTrials,83580,EXP8c,0,1,early,4
114,pass,6345b7f49677d36bd07c5a10,EXP8c_FJ,0,83580f8a886e834911f97058709a23a6ae5fc38fd5de045c2211491d55303283,3363.250174999237,False,keypress,EXP8c_testRsp,244,[],choice-response,Lab,636e065bbae6d6e5860db41b,2022-11-11 03:22:51-05:00,single_300ms_ontime_delay_2_tone_Lab_6,3233,220,EXP8c_maintaskTrials_2_l,maintaskTrials,83580,EXP8c,0,0,ontime,6
115,pass,6345b7f49677d36bd07c5a10,EXP8c_FJ,0,83580f8a886e834911f97058709a23a6ae5fc38fd5de045c2211491d55303283,3363.250174999237,False,keypress,EXP8c_testRsp,362,[],choice-response,Lap,636e065bbae6d6e5860db41b,2022-11-11 03:22:51-05:00,single_300ms_late_delay_2_tone_Lab_5,3441,221,EXP8c_maintaskTrials_2_l,maintaskTrials,83580,EXP8c,0,1,late,5
116,pass,6345b7f49677d36bd07c5a10,EXP8c_FJ,0,83580f8a886e834911f97058709a23a6ae5fc38fd5de045c2211491d55303283,3363.250174999237,False,keypress,EXP8c_testRsp,631,[],choice-response,Lap,636e065bbae6d6e5860db41b,2022-11-11 03:22:51-05:00,single_300ms_late_delay_2_tone_Lab_2,3664,222,EXP8c_maintaskTrials_2_s,maintaskTrials,83580,EXP8c,0,1,late,2
117,pass,6345b7f49677d36bd07c5a10,EXP8c_FJ,0,83580f8a886e834911f97058709a23a6ae5fc38fd5de045c2211491d55303283,3363.250174999237,False,keypress,EXP8c_testRsp,189,[],choice-response,Lab,636e065bbae6d6e5860db41b,2022-11-11 03:22:51-05:00,single_300ms_ontime_delay_2_tone_Lab_1,3234,223,EXP8c_maintaskTrials_2_s,maintaskTrials,83580,EXP8c,0,0,ontime,1
118,pass,6345b7f49677d36bd07c5a10,EXP8c_FJ,0,83580f8a886e834911f97058709a23a6ae5fc38fd5de045c2211491d55303283,3363.250174999237,False,keypress,EXP8c_testRsp,353,[],choice-response,Lab,636e065bbae6d6e5860db41b,2022-11-11 03:22:51-05:00,single_300ms_early_delay_2_tone_Lab_8,3382,224,EXP8c_maintaskTrials_2_l,maintaskTrials,83580,EXP8c,0,0,early,8
119,pass,6345b7f49677d36bd07c5a10,EXP8c_FJ,0,83580f8a886e834911f97058709a23a6ae5fc38fd5de045c2211491d55303283,3363.250174999237,False,keypress,EXP8c_testRsp,823,[],choice-response,Lab,636e065bbae6d6e5860db41b,2022-11-11 03:22:51-05:00,single_300ms_ontime_delay_2_tone_Lab_4,3794,225,EXP8c_maintaskTrials_2_s,maintaskTrials,83580,EXP8c,0,0,ontime,4
120,pass,6345b7f49677d36bd07c5a10,EXP8c_FJ,0,83580f8a886e834911f97058709a23a6ae5fc38fd5de045c2211491d55303283,3363.250174999237,False,keypress,EXP8c_testRsp,2,[],choice-response,Lab,636e065bbae6d6e5860db41b,2022-11-11 03:22:51-05:00,single_300ms_ontime_delay_2_tone_Lab_5,2973,226,EXP8c_maintaskTrials_2_l,maintaskTrials,83580,EXP8c,0,0,ontime,5
121,pass,6345b7f49677d36bd07c5a10,EXP8c_FJ,0,83580f8a886e834911f97058709a23a6ae5fc38fd5de045c2211491d55303283,3363.250174999237,False,keypress,EXP8c_testRsp,1398,[],choice-response,Lab,636e065bbae6d6e5860db41b,2022-11-11 03:22:51-05:00,single_300ms_ontime_delay_2_tone_Lab_6,4380,228,EXP8c_maintaskTrials_2_l,maintaskTrials,83580,EXP8c,0,0,ontime,6
122,pass,6345b7f49677d36bd07c5a10,EXP8c_FJ,0,83580f8a886e834911f97058709a23a6ae5fc38fd5de045c2211491d55303283,3363.250174999237,False,keypress,EXP8c_testRsp,379,[],choice-response,Lab,636e065bbae6d6e5860db41b,2022-11-11 03:22:51-05:00,single_300ms_early_delay_2_tone_Lab_8,3348,229,EXP8c_maintaskTrials_2_l,maintaskTrials,83580,EXP8c,0,0,early,8
123,pass,6345b7f49677d36bd07c5a10,EXP8c_FJ,0,83580f8a886e834911f97058709a23a6ae5fc38fd5de045c2211491d55303283,3363.250174999237,False,keypress,EXP8c_testRsp,544,[],choice-response,Lab,636e065bbae6d6e5860db41b,2022-11-11 03:22:51-05:00,single_300ms_late_delay_2_tone_Lab_8,3704,230,EXP8c_maintaskTrials_2_l,maintaskTrials,83580,EXP8c,0,0,late,8
124,pass,6345b7f49677d36bd07c5a10,EXP8c_FJ,0,83580f8a886e834911f97058709a23a6ae5fc38fd5de045c2211491d55303283,3363.250174999237,False,keypress,EXP8c_testRsp,242,[],choice-response,Lab,636e065bbae6d6e5860db41b,2022-11-11 03:22:51-05:00,single_300ms_ontime_delay_2_tone_Lab_3,3292,231,EXP8c_maintaskTrials_2_s,maintaskTrials,83580,EXP8c,0,0,ontime,3
125,pass,6345b7f49677d36bd07c5a10,EXP8c_FJ,0,83580f8a886e834911f97058709a23a6ae5fc38fd5de045c2211491d55303283,3363.250174999237,False,keypress,EXP8c_testRsp,461,[],choice-response,Lab,636e065bbae6d6e5860db41b,2022-11-11 03:22:51-05:00,single_300ms_early_delay_2_tone_Lab_4,3341,232,EXP8c_maintaskTrials_2_s,maintaskTrials,83580,EXP8c,0,0,early,4
126,pass,6345b7f49677d36bd07c5a10,EXP8c_FJ,0,83580f8a886e834911f97058709a23a6ae5fc38fd5de045c2211491d55303283,3363.250174999237,False,keypress,EXP8c_testRsp,382,[],choice-response,Lab,636e065bbae6d6e5860db41b,2022-11-11 03:22:51-05:00,single_300ms_ontime_delay_2_tone_Lab_8,3418,233,EXP8c_maintaskTrials_2_l,maintaskTrials,83580,EXP8c,0,0,ontime,8
127,pass,6345b7f49677d36bd07c5a10,EXP8c_FJ,0,83580f8a886e834911f97058709a23a6ae5fc38fd5de045c2211491d55303283,3363.250174999237,False,keypress,EXP8c_testRsp,927,[],choice-response,Lap,636e065bbae6d6e5860db41b,2022-11-11 03:22:51-05:00,single_300ms_early_delay_2_tone_Lab_1,3745,234,EXP8c_maintaskTrials_2_s,maintaskTrials,83580,EXP8c,0,1,early,1
128,pass,6345b7f49677d36bd07c5a10,EXP8c_FJ,0,83580f8a886e834911f97058709a23a6ae5fc38fd5de045c2211491d55303283,3363.250174999237,False,keypress,EXP8c_testRsp,567,[],choice-response,Lap,636e065bbae6d6e5860db41b,2022-11-11 03:22:51-05:00,single_300ms_late_delay_2_tone_Lab_6,3682,235,EXP8c_maintaskTrials_2_l,maintaskTrials,83580,EXP8c,0,1,late,6
129,pass,6345b7f49677d36bd07c5a10,EXP8c_FJ,0,83580f8a886e834911f97058709a23a6ae5fc38fd5de045c2211491d55303283,3363.250174999237,False,keypress,EXP8c_testRsp,457,[],choice-response,Lab,636e065bbae6d6e5860db41b,2022-11-11 03:22:51-05:00,single_300ms_ontime_delay_2_tone_Lab_7,3467,236,EXP8c_maintaskTrials_2_l,maintaskTrials,83580,EXP8c,0,0,ontime,7
130,pass,6345b7f49677d36bd07c5a10,EXP8c_FJ,0,83580f8a886e834911f97058709a23a6ae5fc38fd5de045c2211491d55303283,3363.250174999237,False,keypress,EXP8c_testRsp,723,[],choice-response,Lab,636e065bbae6d6e5860db41b,2022-11-11 03:22:51-05:00,single_300ms_late_delay_2_tone_Lab_2,3774,237,EXP8c_maintaskTrials_2_s,maintaskTrials,83580,EXP8c,0,0,late,2
131,pass,6345b7f49677d36bd07c5a10,EXP8c_FJ,0,83580f8a886e834911f97058709a23a6ae5fc38fd5de045c2211491d55303283,3363.250174999237,False,keypress,EXP8c_testRsp,196,[],choice-response,Lap,636e065bbae6d6e5860db41b,2022-11-11 03:22:51-05:00,single_300ms_late_delay_2_tone_Lab_3,3212,238,EXP8c_maintaskTrials_2_s,maintaskTrials,83580,EXP8c,0,1,late,3
132,pass,6345b7f49677d36bd07c5a10,EXP8c_FJ,0,83580f8a886e834911f97058709a23a6ae5fc38fd5de045c2211491d55303283,3363.250174999237,False,keypress,EXP8c_testRsp,258,[],choice-response,Lab,636e065bbae6d6e5860db41b,2022-11-11 03:22:51-05:00,single_300ms_early_delay_2_tone_Lab_7,3194,240,EXP8c_maintaskTrials_2_l,maintaskTrials,83580,EXP8c,0,0,early,7
133,pass,6345b7f49677d36bd07c5a10,EXP8c_FJ,0,83580f8a886e834911f97058709a23a6ae5fc38fd5de045c2211491d55303283,3363.250174999237,False,keypress,EXP8c_testRsp,194,[],choice-response,Lab,636e065bbae6d6e5860db41b,2022-11-11 03:22:51-05:00,single_300ms_early_delay_2_tone_Lab_3,3078,241,EXP8c_maintaskTrials_2_s,maintaskTrials,83580,EXP8c,0,0,early,3
134,pass,6345b7f49677d36bd07c5a10,EXP8c_FJ,0,83580f8a886e834911f97058709a23a6ae5fc38fd5de045c2211491d55303283,3363.250174999237,False,keypress,EXP8c_testRsp,445,[],choice-response,Lab,636e065bbae6d6e5860db41b,2022-11-11 03:22:51-05:00,single_300ms_late_delay_2_tone_Lab_4,3621,242,EXP8c_maintaskTrials_2_s,maintaskTrials,83580,EXP8c,0,0,late,4
135,pass,6345b7f49677d36bd07c5a10,EXP8c_FJ,0,83580f8a886e834911f97058709a23a6ae5fc38fd5de045c2211491d55303283,3363.250174999237,False,keypress,EXP8c_testRsp,294,[],choice-response,Lab,636e065bbae6d6e5860db41b,2022-11-11 03:22:51-05:00,single_300ms_early_delay_2_tone_Lab_2,3139,243,EXP8c_maintaskTrials_2_s,maintaskTrials,83580,EXP8c,0,0,early,2
136,pass,6345b7f49677d36bd07c5a10,EXP8c_FJ,0,83580f8a886e834911f97058709a23a6ae5fc38fd5de045c2211491d55303283,3363.250174999237,False,keypress,EXP8c_testRsp,385,[],choice-response,Lab,636e065bbae6d6e5860db41b,2022-11-11 03:22:51-05:00,single_300ms_late_delay_2_tone_Lab_7,3513,244,EXP8c_maintaskTrials_2_l,maintaskTrials,83580,EXP8c,0,0,late,7
137,pass,6345b7f49677d36bd07c5a10,EXP8c_FJ,0,83580f8a886e834911f97058709a23a6ae5fc38fd5de045c2211491d55303283,3363.250174999237,False,keypress,EXP8c_testRsp,731,[],choice-response,Lab,636e065bbae6d6e5860db41b,2022-11-11 03:22:51-05:00,single_300ms_ontime_delay_2_tone_Lab_4,3660,245,EXP8c_maintaskTrials_2_s,maintaskTrials,83580,EXP8c,0,0,ontime,4
138,pass,6345b7f49677d36bd07c5a10,EXP8c_FJ,0,83580f8a886e834911f97058709a23a6ae5fc38fd5de045c2211491d55303283,3363.250174999237,False,keypress,EXP8c_testRsp,451,[],choice-response,Lab,636e065bbae6d6e5860db41b,2022-11-11 03:22:51-05:00,single_300ms_ontime_delay_2_tone_Lab_2,3380,246,EXP8c_maintaskTrials_2_s,maintaskTrials,83580,EXP8c,0,0,ontime,2
139,pass,6345b7f49677d36bd07c5a10,EXP8c_FJ,0,83580f8a886e834911f97058709a23a6ae5fc38fd5de045c2211491d55303283,3363.250174999237,False,keypress,EXP8c_testRsp,2917,[],choice-response,Lab,636e065bbae6d6e5860db41b,2022-11-11 03:22:51-05:00,single_300ms_early_delay_2_tone_Lab_5,5816,247,EXP8c_maintaskTrials_2_l,maintaskTrials,83580,EXP8c,0,0,early,5
140,pass,6345b7f49677d36bd07c5a10,EXP8c_FJ,0,83580f8a886e834911f97058709a23a6ae5fc38fd5de045c2211491d55303283,3363.250174999237,False,keypress,EXP8c_testRsp,327,[],choice-response,Lab,636e065bbae6d6e5860db41b,2022-11-11 03:22:51-05:00,single_300ms_ontime_delay_2_tone_Lab_1,3240,248,EXP8c_maintaskTrials_2_s,maintaskTrials,83580,EXP8c,0,0,ontime,1
141,pass,6345b7f49677d36bd07c5a10,EXP8c_FJ,0,83580f8a886e834911f97058709a23a6ae5fc38fd5de045c2211491d55303283,3363.250174999237,False,keypress,EXP8c_testRsp,405,[],choice-response,Lap,636e065bbae6d6e5860db41b,2022-11-11 03:22:51-05:00,single_300ms_late_delay_2_tone_Lab_5,3481,249,EXP8c_maintaskTrials_2_l,maintaskTrials,83580,EXP8c,0,1,late,5
142,pass,6345b7f49677d36bd07c5a10,EXP8c_FJ,0,83580f8a886e834911f97058709a23a6ae5fc38fd5de045c2211491d55303283,3363.250174999237,False,keypress,EXP8c_testRsp,383,[],choice-response,Lab,636e065bbae6d6e5860db41b,2022-11-11 03:22:51-05:00,single_300ms_early_delay_2_tone_Lab_6,3303,250,EXP8c_maintaskTrials_2_l,maintaskTrials,83580,EXP8c,0,0,early,6
143,pass,6345b7f49677d36bd07c5a10,EXP8c_FJ,0,83580f8a886e834911f97058709a23a6ae5fc38fd5de045c2211491d55303283,3363.250174999237,False,keypress,EXP8c_testRsp,495,[],choice-response,Lab,636e065bbae6d6e5860db41b,2022-11-11 03:22:51-05:00,single_300ms_late_delay_2_tone_Lab_1,3469,252,EXP8c_maintaskTrials_2_s,maintaskTrials,83580,EXP8c,0,0,late,1
144,pass,6345b7f49677d36bd07c5a10,EXP8c_FJ,0,83580f8a886e834911f97058709a23a6ae5fc38fd5de045c2211491d55303283,3363.250174999237,False,keypress,EXP8c_testRsp,264,[],choice-response,Lab,636e065bbae6d6e5860db41b,2022-11-11 03:22:51-05:00,single_300ms_ontime_delay_2_tone_Lab_8,3356,253,EXP8c_maintaskTrials_2_l,maintaskTrials,83580,EXP8c,0,0,ontime,8
145,pass,6345b7f49677d36bd07c5a10,EXP8c_FJ,0,83580f8a886e834911f97058709a23a6ae5fc38fd5de045c2211491d55303283,3363.250174999237,False,keypress,EXP8c_testRsp,271,[],choice-response,Lab,636e065bbae6d6e5860db41b,2022-11-11 03:22:51-05:00,single_300ms_ontime_delay_2_tone_Lab_2,3220,254,EXP8c_maintaskTrials_2_s,maintaskTrials,83580,EXP8c,0,0,ontime,2
146,pass,6345b7f49677d36bd07c5a10,EXP8c_FJ,0,83580f8a886e834911f97058709a23a6ae5fc38fd5de045c2211491d55303283,3363.250174999237,False,keypress,EXP8c_testRsp,383,[],choice-response,Lab,636e065bbae6d6e5860db41b,2022-11-11 03:22:51-05:00,single_300ms_early_delay_2_tone_Lab_3,3246,255,EXP8c_maintaskTrials_2_s,maintaskTrials,83580,EXP8c,0,0,early,3
147,pass,6345b7f49677d36bd07c5a10,EXP8c_FJ,0,83580f8a886e834911f97058709a23a6ae5fc38fd5de045c2211491d55303283,3363.250174999237,False,keypress,EXP8c_testRsp,703,[],choice-response,Lab,636e065bbae6d6e5860db41b,2022-11-11 03:22:51-05:00,single_300ms_late_delay_2_tone_Lab_6,3838,256,EXP8c_maintaskTrials_2_l,maintaskTrials,83580,EXP8c,0,0,late,6
148,pass,6345b7f49677d36bd07c5a10,EXP8c_FJ,0,83580f8a886e834911f97058709a23a6ae5fc38fd5de045c2211491d55303283,3363.250174999237,False,keypress,EXP8c_testRsp,435,[],choice-response,Lap,636e065bbae6d6e5860db41b,2022-11-11 03:22:51-05:00,single_300ms_early_delay_2_tone_Lab_2,3268,257,EXP8c_maintaskTrials_2_s,maintaskTrials,83580,EXP8c,0,1,early,2
149,pass,6345b7f49677d36bd07c5a10,EXP8c_FJ,0,83580f8a886e834911f97058709a23a6ae5fc38fd5de045c2211491d55303283,3363.250174999237,False,keypress,EXP8c_testRsp,435,[],choice-response,Lap,636e065bbae6d6e5860db41b,2022-11-11 03:22:51-05:00,single_300ms_ontime_delay_2_tone_Lab_3,3338,258,EXP8c_maintaskTrials_2_s,maintaskTrials,83580,EXP8c,0,1,ontime,3
150,pass,6345b7f49677d36bd07c5a10,EXP8c_FJ,0,83580f8a886e834911f97058709a23a6ae5fc38fd5de045c2211491d55303283,3363.250174999237,False,keypress,EXP8c_testRsp,14352,[],choice-response,Lap,636e065bbae6d6e5860db41b,2022-11-11 03:22:51-05:00,single_300ms_early_delay_2_tone_Lab_5,17258,259,EXP8c_maintaskTrials_2_l,maintaskTrials,83580,EXP8c,0,1,early,5
151,pass,6345b7f49677d36bd07c5a10,EXP8c_FJ,0,83580f8a886e834911f97058709a23a6ae5fc38fd5de045c2211491d55303283,3363.250174999237,False,keypress,EXP8c_testRsp,287,[],choice-response,Lab,636e065bbae6d6e5860db41b,2022-11-11 03:22:51-05:00,single_300ms_early_delay_2_tone_Lab_8,3257,260,EXP8c_maintaskTrials_2_l,maintaskTrials,83580,EXP8c,0,0,early,8
152,pass,6345b7f49677d36bd07c5a10,EXP8c_FJ,0,83580f8a886e834911f97058709a23a6ae5fc38fd5de045c2211491d55303283,3363.250174999237,False,keypress,EXP8c_testRsp,346,[],choice-response,Lab,636e065bbae6d6e5860db41b,2022-11-11 03:22:51-05:00,single_300ms_late_delay_2_tone_Lab_7,3444,261,EXP8c_maintaskTrials_2_l,maintaskTrials,83580,EXP8c,0,0,late,7
153,pass,6345b7f49677d36bd07c5a10,EXP8c_FJ,0,83580f8a886e834911f97058709a23a6ae5fc38fd5de045c2211491d55303283,3363.250174999237,False,keypress,EXP8c_testRsp,530,[],choice-response,Lab,636e065bbae6d6e5860db41b,2022-11-11 03:22:51-05:00,single_300ms_ontime_delay_2_tone_Lab_7,3562,262,EXP8c_maintaskTrials_2_l,maintaskTrials,83580,EXP8c,0,0,ontime,7
154,pass,6345b7f49677d36bd07c5a10,EXP8c_FJ,0,83580f8a886e834911f97058709a23a6ae5fc38fd5de045c2211491d55303283,3363.250174999237,False,keypress,EXP8c_testRsp,249,[],choice-response,Lap,636e065bbae6d6e5860db41b,2022-11-11 03:22:51-05:00,single_300ms_late_delay_2_tone_Lab_1,3263,263,EXP8c_maintaskTrials_2_s,maintaskTrials,83580,EXP8c,0,1,late,1
155,pass,6345b7f49677d36bd07c5a10,EXP8c_FJ,0,83580f8a886e834911f97058709a23a6ae5fc38fd5de045c2211491d55303283,3363.250174999237,False,keypress,EXP8c_testRsp,176,[],choice-response,Lab,636e065bbae6d6e5860db41b,2022-11-11 03:22:51-05:00,single_300ms_early_delay_2_tone_Lab_4,3052,265,EXP8c_maintaskTrials_2_s,maintaskTrials,83580,EXP8c,0,0,early,4
156,pass,6345b7f49677d36bd07c5a10,EXP8c_FJ,0,83580f8a886e834911f97058709a23a6ae5fc38fd5de045c2211491d55303283,3363.250174999237,False,keypress,EXP8c_testRsp,232,[],choice-response,Lap,636e065bbae6d6e5860db41b,2022-11-11 03:22:51-05:00,single_300ms_early_delay_2_tone_Lab_1,3066,266,EXP8c_maintaskTrials_2_s,maintaskTrials,83580,EXP8c,0,1,early,1
157,pass,6345b7f49677d36bd07c5a10,EXP8c_FJ,0,83580f8a886e834911f97058709a23a6ae5fc38fd5de045c2211491d55303283,3363.250174999237,False,keypress,EXP8c_testRsp,422,[],choice-response,Lab,636e065bbae6d6e5860db41b,2022-11-11 03:22:51-05:00,single_300ms_early_delay_2_tone_Lab_7,3352,267,EXP8c_maintaskTrials_2_l,maintaskTrials,83580,EXP8c,0,0,early,7
158,pass,6345b7f49677d36bd07c5a10,EXP8c_FJ,0,83580f8a886e834911f97058709a23a6ae5fc38fd5de045c2211491d55303283,3363.250174999237,False,keypress,EXP8c_testRsp,372,[],choice-response,Lab,636e065bbae6d6e5860db41b,2022-11-11 03:22:51-05:00,single_300ms_ontime_delay_2_tone_Lab_5,3370,268,EXP8c_maintaskTrials_2_l,maintaskTrials,83580,EXP8c,0,0,ontime,5
159,pass,6345b7f49677d36bd07c5a10,EXP8c_FJ,0,83580f8a886e834911f97058709a23a6ae5fc38fd5de045c2211491d55303283,3363.250174999237,False,keypress,EXP8c_testRsp,443,[],choice-response,Lap,636e065bbae6d6e5860db41b,2022-11-11 03:22:51-05:00,single_300ms_late_delay_2_tone_Lab_4,3514,269,EXP8c_maintaskTrials_2_s,maintaskTrials,83580,EXP8c,0,1,late,4
160,pass,6345b7f49677d36bd07c5a10,EXP8c_FJ,0,83580f8a886e834911f97058709a23a6ae5fc38fd5de045c2211491d55303283,3363.250174999237,False,keypress,EXP8c_testRsp,553,[],choice-response,Lab,636e065bbae6d6e5860db41b,2022-11-11 03:22:51-05:00,single_300ms_early_delay_2_tone_Lab_6,3469,270,EXP8c_maintaskTrials_2_l,maintaskTrials,83580,EXP8c,0,0,early,6
161,pass,6345b7f49677d36bd07c5a10,EXP8c_FJ,0,83580f8a886e834911f97058709a23a6ae5fc38fd5de045c2211491d55303283,3363.250174999237,False,keypress,EXP8c_testRsp,178,[],choice-response,Lap,636e065bbae6d6e5860db41b,2022-11-11 03:22:51-05:00,single_300ms_late_delay_2_tone_Lab_5,3295,271,EXP8c_maintaskTrials_2_l,maintaskTrials,83580,EXP8c,0,1,late,5
162,pass,6345b7f49677d36bd07c5a10,EXP8c_FJ,0,83580f8a886e834911f97058709a23a6ae5fc38fd5de045c2211491d55303283,3363.250174999237,False,keypress,EXP8c_testRsp,295,[],choice-response,Lab,636e065bbae6d6e5860db41b,2022-11-11 03:22:51-05:00,single_300ms_ontime_delay_2_tone_Lab_6,3312,272,EXP8c_maintaskTrials_2_l,maintaskTrials,83580,EXP8c,0,0,ontime,6
163,pass,6345b7f49677d36bd07c5a10,EXP8c_FJ,0,83580f8a886e834911f97058709a23a6ae5fc38fd5de045c2211491d55303283,3363.250174999237,False,keypress,EXP8c_testRsp,570,[],choice-response,Lap,636e065bbae6d6e5860db41b,2022-11-11 03:22:51-05:00,single_300ms_ontime_delay_2_tone_Lab_4,3510,273,EXP8c_maintaskTrials_2_s,maintaskTrials,83580,EXP8c,0,1,ontime,4
164,pass,6345b7f49677d36bd07c5a10,EXP8c_FJ,0,83580f8a886e834911f97058709a23a6ae5fc38fd5de045c2211491d55303283,3363.250174999237,False,keypress,EXP8c_testRsp,674,[],choice-response,Lap,636e065bbae6d6e5860db41b,2022-11-11 03:22:51-05:00,single_300ms_late_delay_2_tone_Lab_2,3679,274,EXP8c_maintaskTrials_2_s,maintaskTrials,83580,EXP8c,0,1,late,2
165,pass,6345b7f49677d36bd07c5a10,EXP8c_FJ,0,83580f8a886e834911f97058709a23a6ae5fc38fd5de045c2211491d55303283,3363.250174999237,False,keypress,EXP8c_testRsp,1033,[],choice-response,Lab,636e065bbae6d6e5860db41b,2022-11-11 03:22:51-05:00,single_300ms_late_delay_2_tone_Lab_8,4174,275,EXP8c_maintaskTrials_2_l,maintaskTrials,83580,EXP8c,0,0,late,8
166,pass,6345b7f49677d36bd07c5a10,EXP8c_FJ,0,83580f8a886e834911f97058709a23a6ae5fc38fd5de045c2211491d55303283,3363.250174999237,False,keypress,EXP8c_testRsp,581,[],choice-response,Lab,636e065bbae6d6e5860db41b,2022-11-11 03:22:51-05:00,single_300ms_late_delay_2_tone_Lab_3,3622,277,EXP8c_maintaskTrials_2_s,maintaskTrials,83580,EXP8c,0,0,late,3
167,pass,6345b7f49677d36bd07c5a10,EXP8c_FJ,0,83580f8a886e834911f97058709a23a6ae5fc38fd5de045c2211491d55303283,3363.250174999237,False,keypress,EXP8c_testRsp,648,[],choice-response,Lap,636e065bbae6d6e5860db41b,2022-11-11 03:22:51-05:00,single_300ms_ontime_delay_2_tone_Lab_1,3547,278,EXP8c_maintaskTrials_2_s,maintaskTrials,83580,EXP8c,0,1,ontime,1
168,pass,6345b7f49677d36bd07c5a10,EXP8c_FJ,0,83580f8a886e834911f97058709a23a6ae5fc38fd5de045c2211491d55303283,3363.250174999237,False,keypress,EXP8c_testRsp,341,[],choice-response,Lab,636e065bbae6d6e5860db41b,2022-11-11 03:22:51-05:00,single_300ms_ontime_delay_2_tone_Lab_5,3285,279,EXP8c_maintaskTrials_2_l,maintaskTrials,83580,EXP8c,0,0,ontime,5
169,pass,6345b7f49677d36bd07c5a10,EXP8c_FJ,0,83580f8a886e834911f97058709a23a6ae5fc38fd5de045c2211491d55303283,3363.250174999237,False,keypress,EXP8c_testRsp,425,[],choice-response,Lab,636e065bbae6d6e5860db41b,2022-11-11 03:22:51-05:00,single_300ms_late_delay_2_tone_Lab_7,3553,280,EXP8c_maintaskTrials_2_l,maintaskTrials,83580,EXP8c,0,0,late,7
170,pass,6345b7f49677d36bd07c5a10,EXP8c_FJ,0,83580f8a886e834911f97058709a23a6ae5fc38fd5de045c2211491d55303283,3363.250174999237,False,keypress,EXP8c_testRsp,839,[],choice-response,Lab,636e065bbae6d6e5860db41b,2022-11-11 03:22:51-05:00,single_300ms_ontime_delay_2_tone_Lab_6,3807,281,EXP8c_maintaskTrials_2_l,maintaskTrials,83580,EXP8c,0,0,ontime,6
171,pass,6345b7f49677d36bd07c5a10,EXP8c_FJ,0,83580f8a886e834911f97058709a23a6ae5fc38fd5de045c2211491d55303283,3363.250174999237,False,keypress,EXP8c_testRsp,280,[],choice-response,Lab,636e065bbae6d6e5860db41b,2022-11-11 03:22:51-05:00,single_300ms_ontime_delay_2_tone_Lab_7,3313,282,EXP8c_maintaskTrials_2_l,maintaskTrials,83580,EXP8c,0,0,ontime,7
172,pass,6345b7f49677d36bd07c5a10,EXP8c_FJ,0,83580f8a886e834911f97058709a23a6ae5fc38fd5de045c2211491d55303283,3363.250174999237,False,keypress,EXP8c_testRsp,315,[],choice-response,Lab,636e065bbae6d6e5860db41b,2022-11-11 03:22:51-05:00,single_300ms_early_delay_2_tone_Lab_8,3286,283,EXP8c_maintaskTrials_2_l,maintaskTrials,83580,EXP8c,0,0,early,8
173,pass,6345b7f49677d36bd07c5a10,EXP8c_FJ,0,83580f8a886e834911f97058709a23a6ae5fc38fd5de045c2211491d55303283,3363.250174999237,False,keypress,EXP8c_testRsp,453,[],choice-response,Lap,636e065bbae6d6e5860db41b,2022-11-11 03:22:51-05:00,single_300ms_early_delay_2_tone_Lab_4,3315,284,EXP8c_maintaskTrials_2_s,maintaskTrials,83580,EXP8c,0,1,early,4
174,pass,6345b7f49677d36bd07c5a10,EXP8c_FJ,0,83580f8a886e834911f97058709a23a6ae5fc38fd5de045c2211491d55303283,3363.250174999237,False,keypress,EXP8c_testRsp,1167,[],choice-response,Lab,636e065bbae6d6e5860db41b,2022-11-11 03:22:51-05:00,single_300ms_early_delay_2_tone_Lab_5,4079,285,EXP8c_maintaskTrials_2_l,maintaskTrials,83580,EXP8c,0,0,early,5
175,pass,6345b7f49677d36bd07c5a10,EXP8c_FJ,0,83580f8a886e834911f97058709a23a6ae5fc38fd5de045c2211491d55303283,3363.250174999237,False,keypress,EXP8c_testRsp,5324,[],choice-response,Lap,636e065bbae6d6e5860db41b,2022-11-11 03:22:51-05:00,single_300ms_ontime_delay_2_tone_Lab_2,8261,286,EXP8c_maintaskTrials_2_s,maintaskTrials,83580,EXP8c,0,1,ontime,2
176,pass,6345b7f49677d36bd07c5a10,EXP8c_FJ,0,83580f8a886e834911f97058709a23a6ae5fc38fd5de045c2211491d55303283,3363.250174999237,False,keypress,EXP8c_testRsp,431,[],choice-response,Lab,636e065bbae6d6e5860db41b,2022-11-11 03:22:51-05:00,single_300ms_late_delay_2_tone_Lab_8,3556,287,EXP8c_maintaskTrials_2_l,maintaskTrials,83580,EXP8c,0,0,late,8
177,pass,6345b7f49677d36bd07c5a10,EXP8c_FJ,0,83580f8a886e834911f97058709a23a6ae5fc38fd5de045c2211491d55303283,3363.250174999237,False,keypress,EXP8c_testRsp,815,[],choice-response,Lap,636e065bbae6d6e5860db41b,2022-11-11 03:22:51-05:00,single_300ms_late_delay_2_tone_Lab_3,3834,289,EXP8c_maintaskTrials_2_s,maintaskTrials,83580,EXP8c,0,1,late,3
178,pass,6345b7f49677d36bd07c5a10,EXP8c_FJ,0,83580f8a886e834911f97058709a23a6ae5fc38fd5de045c2211491d55303283,3363.250174999237,False,keypress,EXP8c_testRsp,1496,[],choice-response,Lab,636e065bbae6d6e5860db41b,2022-11-11 03:22:51-05:00,single_300ms_late_delay_2_tone_Lab_5,4562,290,EXP8c_maintaskTrials_2_l,maintaskTrials,83580,EXP8c,0,0,late,5
179,pass,6345b7f49677d36bd07c5a10,EXP8c_FJ,0,83580f8a886e834911f97058709a23a6ae5fc38fd5de045c2211491d55303283,3363.250174999237,False,keypress,EXP8c_testRsp,2171,[],choice-response,Lap,636e065bbae6d6e5860db41b,2022-11-11 03:22:51-05:00,single_300ms_ontime_delay_2_tone_Lab_3,5092,291,EXP8c_maintaskTrials_2_s,maintaskTrials,83580,EXP8c,0,1,ontime,3
180,pass,6345b7f49677d36bd07c5a10,EXP8c_FJ,0,83580f8a886e834911f97058709a23a6ae5fc38fd5de045c2211491d55303283,3363.250174999237,False,keypress,EXP8c_testRsp,1501,[],choice-response,Lab,636e065bbae6d6e5860db41b,2022-11-11 03:22:51-05:00,single_300ms_early_delay_2_tone_Lab_1,4305,292,EXP8c_maintaskTrials_2_s,maintaskTrials,83580,EXP8c,0,0,early,1
181,pass,6345b7f49677d36bd07c5a10,EXP8c_FJ,0,83580f8a886e834911f97058709a23a6ae5fc38fd5de045c2211491d55303283,3363.250174999237,False,keypress,EXP8c_testRsp,2030,[],choice-response,Lab,636e065bbae6d6e5860db41b,2022-11-11 03:22:51-05:00,single_300ms_early_delay_2_tone_Lab_3,4883,293,EXP8c_maintaskTrials_2_s,maintaskTrials,83580,EXP8c,0,0,early,3
182,pass,6345b7f49677d36bd07c5a10,EXP8c_FJ,0,83580f8a886e834911f97058709a23a6ae5fc38fd5de045c2211491d55303283,3363.250174999237,False,keypress,EXP8c_testRsp,584,[],choice-response,Lab,636e065bbae6d6e5860db41b,2022-11-11 03:22:51-05:00,single_300ms_ontime_delay_2_tone_Lab_8,3642,294,EXP8c_maintaskTrials_2_l,maintaskTrials,83580,EXP8c,0,0,ontime,8
183,pass,6345b7f49677d36bd07c5a10,EXP8c_FJ,0,83580f8a886e834911f97058709a23a6ae5fc38fd5de045c2211491d55303283,3363.250174999237,False,keypress,EXP8c_testRsp,350,[],choice-response,Lab,636e065bbae6d6e5860db41b,2022-11-11 03:22:51-05:00,single_300ms_ontime_delay_2_tone_Lab_4,3313,295,EXP8c_maintaskTrials_2_s,maintaskTrials,83580,EXP8c,0,0,ontime,4
184,pass,6345b7f49677d36bd07c5a10,EXP8c_FJ,0,83580f8a886e834911f97058709a23a6ae5fc38fd5de045c2211491d55303283,3363.250174999237,False,keypress,EXP8c_testRsp,445,[],choice-response,Lap,636e065bbae6d6e5860db41b,2022-11-11 03:22:51-05:00,single_300ms_early_delay_2_tone_Lab_2,3289,296,EXP8c_maintaskTrials_2_s,maintaskTrials,83580,EXP8c,0,1,early,2
185,pass,6345b7f49677d36bd07c5a10,EXP8c_FJ,0,83580f8a886e834911f97058709a23a6ae5fc38fd5de045c2211491d55303283,3363.250174999237,False,keypress,EXP8c_testRsp,528,[],choice-response,Lab,636e065bbae6d6e5860db41b,2022-11-11 03:22:51-05:00,single_300ms_late_delay_2_tone_Lab_6,3648,297,EXP8c_maintaskTrials_2_l,maintaskTrials,83580,EXP8c,0,0,late,6
186,pass,6345b7f49677d36bd07c5a10,EXP8c_FJ,0,83580f8a886e834911f97058709a23a6ae5fc38fd5de045c2211491d55303283,3363.250174999237,False,keypress,EXP8c_testRsp,334,[],choice-response,Lap,636e065bbae6d6e5860db41b,2022-11-11 03:22:51-05:00,single_300ms_ontime_delay_2_tone_Lab_1,3242,298,EXP8c_maintaskTrials_2_s,maintaskTrials,83580,EXP8c,0,1,ontime,1
187,pass,6345b7f49677d36bd07c5a10,EXP8c_FJ,0,83580f8a886e834911f97058709a23a6ae5fc38fd5de045c2211491d55303283,3363.250174999237,False,keypress,EXP8c_testRsp,218,[],choice-response,Lab,636e065bbae6d6e5860db41b,2022-11-11 03:22:51-05:00,single_300ms_early_delay_2_tone_Lab_7,3166,299,EXP8c_maintaskTrials_2_l,maintaskTrials,83580,EXP8c,0,0,early,7
188,pass,6345b7f49677d36bd07c5a10,EXP8c_FJ,0,83580f8a886e834911f97058709a23a6ae5fc38fd5de045c2211491d55303283,3363.250174999237,False,keypress,EXP8c_testRsp,725,[],choice-response,Lap,636e065bbae6d6e5860db41b,2022-11-11 03:22:51-05:00,single_300ms_late_delay_2_tone_Lab_2,3748,301,EXP8c_maintaskTrials_2_s,maintaskTrials,83580,EXP8c,0,1,late,2
189,pass,6345b7f49677d36bd07c5a10,EXP8c_FJ,0,83580f8a886e834911f97058709a23a6ae5fc38fd5de045c2211491d55303283,3363.250174999237,False,keypress,EXP8c_testRsp,230,[],choice-response,Lab,636e065bbae6d6e5860db41b,2022-11-11 03:22:51-05:00,single_300ms_late_delay_2_tone_Lab_1,3269,302,EXP8c_maintaskTrials_2_s,maintaskTrials,83580,EXP8c,0,0,late,1
190,pass,6345b7f49677d36bd07c5a10,EXP8c_FJ,0,83580f8a886e834911f97058709a23a6ae5fc38fd5de045c2211491d55303283,3363.250174999237,False,keypress,EXP8c_testRsp,330,[],choice-response,Lab,636e065bbae6d6e5860db41b,2022-11-11 03:22:51-05:00,single_300ms_late_delay_2_tone_Lab_4,3389,303,EXP8c_maintaskTrials_2_s,maintaskTrials,83580,EXP8c,0,0,late,4
191,pass,6345b7f49677d36bd07c5a10,EXP8c_FJ,0,83580f8a886e834911f97058709a23a6ae5fc38fd5de045c2211491d55303283,3363.250174999237,False,keypress,EXP8c_testRsp,1079,[],choice-response,Lab,636e065bbae6d6e5860db41b,2022-11-11 03:22:51-05:00,single_300ms_early_delay_2_tone_Lab_6,3994,304,EXP8c_maintaskTrials_2_l,maintaskTrials,83580,EXP8c,0,0,early,6
192,pass,6345b7f49677d36bd07c5a10,EXP8c_FJ,0,83580f8a886e834911f97058709a23a6ae5fc38fd5de045c2211491d55303283,3363.250174999237,False,keypress,EXP8c_testRsp,589,[],choice-response,Lab,636e065bbae6d6e5860db41b,2022-11-11 03:22:51-05:00,single_300ms_ontime_delay_2_tone_Lab_2,3514,305,EXP8c_maintaskTrials_2_s,maintaskTrials,83580,EXP8c,0,0,ontime,2
193,pass,6345b7f49677d36bd07c5a10,EXP8c_FJ,0,83580f8a886e834911f97058709a23a6ae5fc38fd5de045c2211491d55303283,3363.250174999237,False,keypress,EXP8c_testRsp,591,[],choice-response,Lap,636e065bbae6d6e5860db41b,2022-11-11 03:22:51-05:00,single_300ms_early_delay_2_tone_Lab_3,3460,306,EXP8c_maintaskTrials_2_s,maintaskTrials,83580,EXP8c,0,1,early,3
194,pass,6345b7f49677d36bd07c5a10,EXP8c_FJ,0,83580f8a886e834911f97058709a23a6ae5fc38fd5de045c2211491d55303283,3363.250174999237,False,keypress,EXP8c_testRsp,407,[],choice-response,Lap,636e065bbae6d6e5860db41b,2022-11-11 03:22:51-05:00,single_300ms_late_delay_2_tone_Lab_1,3413,307,EXP8c_maintaskTrials_2_s,maintaskTrials,83580,EXP8c,0,1,late,1
195,pass,6345b7f49677d36bd07c5a10,EXP8c_FJ,0,83580f8a886e834911f97058709a23a6ae5fc38fd5de045c2211491d55303283,3363.250174999237,False,keypress,EXP8c_testRsp,1296,[],choice-response,Lab,636e065bbae6d6e5860db41b,2022-11-11 03:22:51-05:00,single_300ms_late_delay_2_tone_Lab_8,4464,308,EXP8c_maintaskTrials_2_l,maintaskTrials,83580,EXP8c,0,0,late,8
196,pass,6345b7f49677d36bd07c5a10,EXP8c_FJ,0,83580f8a886e834911f97058709a23a6ae5fc38fd5de045c2211491d55303283,3363.250174999237,False,keypress,EXP8c_testRsp,1256,[],choice-response,Lab,636e065bbae6d6e5860db41b,2022-11-11 03:22:51-05:00,single_300ms_late_delay_2_tone_Lab_6,4333,309,EXP8c_maintaskTrials_2_l,maintaskTrials,83580,EXP8c,0,0,late,6
197,pass,6345b7f49677d36bd07c5a10,EXP8c_FJ,0,83580f8a886e834911f97058709a23a6ae5fc38fd5de045c2211491d55303283,3363.250174999237,False,keypress,EXP8c_testRsp,1930,[],choice-response,Lap,636e065bbae6d6e5860db41b,2022-11-11 03:22:51-05:00,single_300ms_ontime_delay_2_tone_Lab_4,4864,310,EXP8c_maintaskTrials_2_s,maintaskTrials,83580,EXP8c,0,1,ontime,4
198,pass,6345b7f49677d36bd07c5a10,EXP8c_FJ,0,83580f8a886e834911f97058709a23a6ae5fc38fd5de045c2211491d55303283,3363.250174999237,False,keypress,EXP8c_testRsp,288,[],choice-response,Lab,636e065bbae6d6e5860db41b,2022-11-11 03:22:51-05:00,single_300ms_ontime_delay_2_tone_Lab_5,3289,311,EXP8c_maintaskTrials_2_l,maintaskTrials,83580,EXP8c,0,0,ontime,5
199,pass,6345b7f49677d36bd07c5a10,EXP8c_FJ,0,83580f8a886e834911f97058709a23a6ae5fc38fd5de045c2211491d55303283,3363.250174999237,False,keypress,EXP8c_testRsp,389,[],choice-response,Lab,636e065bbae6d6e5860db41b,2022-11-11 03:22:51-05:00,single_300ms_ontime_delay_2_tone_Lab_3,3331,313,EXP8c_maintaskTrials_2_s,maintaskTrials,83580,EXP8c,0,0,ontime,3
200,pass,6345b7f49677d36bd07c5a10,EXP8c_FJ,0,83580f8a886e834911f97058709a23a6ae5fc38fd5de045c2211491d55303283,3363.250174999237,False,keypress,EXP8c_testRsp,879,[],choice-response,Lap,636e065bbae6d6e5860db41b,2022-11-11 03:22:51-05:00,single_300ms_late_delay_2_tone_Lab_2,3920,314,EXP8c_maintaskTrials_2_s,maintaskTrials,83580,EXP8c,0,1,late,2
201,pass,6345b7f49677d36bd07c5a10,EXP8c_FJ,0,83580f8a886e834911f97058709a23a6ae5fc38fd5de045c2211491d55303283,3363.250174999237,False,keypress,EXP8c_testRsp,291,[],choice-response,Lab,636e065bbae6d6e5860db41b,2022-11-11 03:22:51-05:00,single_300ms_ontime_delay_2_tone_Lab_6,3316,315,EXP8c_maintaskTrials_2_l,maintaskTrials,83580,EXP8c,0,0,ontime,6
202,pass,6345b7f49677d36bd07c5a10,EXP8c_FJ,0,83580f8a886e834911f97058709a23a6ae5fc38fd5de045c2211491d55303283,3363.250174999237,False,keypress,EXP8c_testRsp,724,[],choice-response,Lap,636e065bbae6d6e5860db41b,2022-11-11 03:22:51-05:00,single_300ms_late_delay_2_tone_Lab_5,3801,316,EXP8c_maintaskTrials_2_l,maintaskTrials,83580,EXP8c,0,1,late,5
203,pass,6345b7f49677d36bd07c5a10,EXP8c_FJ,0,83580f8a886e834911f97058709a23a6ae5fc38fd5de045c2211491d55303283,3363.250174999237,False,keypress,EXP8c_testRsp,844,[],choice-response,Lab,636e065bbae6d6e5860db41b,2022-11-11 03:22:51-05:00,single_300ms_early_delay_2_tone_Lab_4,3685,317,EXP8c_maintaskTrials_2_s,maintaskTrials,83580,EXP8c,0,0,early,4
204,pass,6345b7f49677d36bd07c5a10,EXP8c_FJ,0,83580f8a886e834911f97058709a23a6ae5fc38fd5de045c2211491d55303283,3363.250174999237,False,keypress,EXP8c_testRsp,472,[],choice-response,Lab,636e065bbae6d6e5860db41b,2022-11-11 03:22:51-05:00,single_300ms_ontime_delay_2_tone_Lab_7,3541,318,EXP8c_maintaskTrials_2_l,maintaskTrials,83580,EXP8c,0,0,ontime,7
205,pass,6345b7f49677d36bd07c5a10,EXP8c_FJ,0,83580f8a886e834911f97058709a23a6ae5fc38fd5de045c2211491d55303283,3363.250174999237,False,keypress,EXP8c_testRsp,488,[],choice-response,Lap,636e065bbae6d6e5860db41b,2022-11-11 03:22:51-05:00,single_300ms_late_delay_2_tone_Lab_3,3529,319,EXP8c_maintaskTrials_2_s,maintaskTrials,83580,EXP8c,0,1,late,3
206,pass,6345b7f49677d36bd07c5a10,EXP8c_FJ,0,83580f8a886e834911f97058709a23a6ae5fc38fd5de045c2211491d55303283,3363.250174999237,False,keypress,EXP8c_testRsp,405,[],choice-response,Lap,636e065bbae6d6e5860db41b,2022-11-11 03:22:51-05:00,single_300ms_ontime_delay_2_tone_Lab_1,3331,320,EXP8c_maintaskTrials_2_s,maintaskTrials,83580,EXP8c,0,1,ontime,1
207,pass,6345b7f49677d36bd07c5a10,EXP8c_FJ,0,83580f8a886e834911f97058709a23a6ae5fc38fd5de045c2211491d55303283,3363.250174999237,False,keypress,EXP8c_testRsp,254,[],choice-response,Lab,636e065bbae6d6e5860db41b,2022-11-11 03:22:51-05:00,single_300ms_ontime_delay_2_tone_Lab_8,3287,321,EXP8c_maintaskTrials_2_l,maintaskTrials,83580,EXP8c,0,0,ontime,8
208,pass,6345b7f49677d36bd07c5a10,EXP8c_FJ,0,83580f8a886e834911f97058709a23a6ae5fc38fd5de045c2211491d55303283,3363.250174999237,False,keypress,EXP8c_testRsp,805,[],choice-response,Lab,636e065bbae6d6e5860db41b,2022-11-11 03:22:51-05:00,single_300ms_early_delay_2_tone_Lab_6,3690,322,EXP8c_maintaskTrials_2_l,maintaskTrials,83580,EXP8c,0,0,early,6
209,pass,6345b7f49677d36bd07c5a10,EXP8c_FJ,0,83580f8a886e834911f97058709a23a6ae5fc38fd5de045c2211491d55303283,3363.250174999237,False,keypress,EXP8c_testRsp,392,[],choice-response,Lap,636e065bbae6d6e5860db41b,2022-11-11 03:22:51-05:00,single_300ms_early_delay_2_tone_Lab_8,3332,323,EXP8c_maintaskTrials_2_l,maintaskTrials,83580,EXP8c,0,1,early,8
210,pass,6345b7f49677d36bd07c5a10,EXP8c_FJ,0,83580f8a886e834911f97058709a23a6ae5fc38fd5de045c2211491d55303283,3363.250174999237,False,keypress,EXP8c_testRsp,779,[],choice-response,Lab,636e065bbae6d6e5860db41b,2022-11-11 03:22:51-05:00,single_300ms_early_delay_2_tone_Lab_5,3678,325,EXP8c_maintaskTrials_2_l,maintaskTrials,83580,EXP8c,0,0,early,5
211,pass,6345b7f49677d36bd07c5a10,EXP8c_FJ,0,83580f8a886e834911f97058709a23a6ae5fc38fd5de045c2211491d55303283,3363.250174999237,False,keypress,EXP8c_testRsp,708,[],choice-response,Lab,636e065bbae6d6e5860db41b,2022-11-11 03:22:51-05:00,single_300ms_early_delay_2_tone_Lab_7,3663,326,EXP8c_maintaskTrials_2_l,maintaskTrials,83580,EXP8c,0,0,early,7
212,pass,6345b7f49677d36bd07c5a10,EXP8c_FJ,0,83580f8a886e834911f97058709a23a6ae5fc38fd5de045c2211491d55303283,3363.250174999237,False,keypress,EXP8c_testRsp,1719,[],choice-response,Lap,636e065bbae6d6e5860db41b,2022-11-11 03:22:51-05:00,single_300ms_early_delay_2_tone_Lab_2,4549,327,EXP8c_maintaskTrials_2_s,maintaskTrials,83580,EXP8c,0,1,early,2
213,pass,6345b7f49677d36bd07c5a10,EXP8c_FJ,0,83580f8a886e834911f97058709a23a6ae5fc38fd5de045c2211491d55303283,3363.250174999237,False,keypress,EXP8c_testRsp,1363,[],choice-response,Lab,636e065bbae6d6e5860db41b,2022-11-11 03:22:51-05:00,single_300ms_late_delay_2_tone_Lab_7,4507,328,EXP8c_maintaskTrials_2_l,maintaskTrials,83580,EXP8c,0,0,late,7
214,pass,6345b7f49677d36bd07c5a10,EXP8c_FJ,0,83580f8a886e834911f97058709a23a6ae5fc38fd5de045c2211491d55303283,3363.250174999237,False,keypress,EXP8c_testRsp,716,[],choice-response,Lap,636e065bbae6d6e5860db41b,2022-11-11 03:22:51-05:00,single_300ms_early_delay_2_tone_Lab_1,3510,329,EXP8c_maintaskTrials_2_s,maintaskTrials,83580,EXP8c,0,1,early,1
215,pass,6345b7f49677d36bd07c5a10,EXP8c_FJ,0,83580f8a886e834911f97058709a23a6ae5fc38fd5de045c2211491d55303283,3363.250174999237,False,keypress,EXP8c_testRsp,632,[],choice-response,Lap,636e065bbae6d6e5860db41b,2022-11-11 03:22:51-05:00,single_300ms_late_delay_2_tone_Lab_4,3698,330,EXP8c_maintaskTrials_2_s,maintaskTrials,83580,EXP8c,0,1,late,4
216,pass,6345b7f49677d36bd07c5a10,EXP8c_FJ,0,83580f8a886e834911f97058709a23a6ae5fc38fd5de045c2211491d55303283,3363.250174999237,False,keypress,EXP8c_testRsp,3672,[],choice-response,Lap,636e065bbae6d6e5860db41b,2022-11-11 03:22:51-05:00,single_300ms_ontime_delay_2_tone_Lab_7,6718,331,EXP8c_maintaskTrials_2_l,maintaskTrials,83580,EXP8c,0,1,ontime,7
217,pass,6345b7f49677d36bd07c5a10,EXP8c_FJ,0,83580f8a886e834911f97058709a23a6ae5fc38fd5de045c2211491d55303283,3363.250174999237,False,keypress,EXP8c_testRsp,394,[],choice-response,Lab,636e065bbae6d6e5860db41b,2022-11-11 03:22:51-05:00,single_300ms_ontime_delay_2_tone_Lab_8,3440,332,EXP8c_maintaskTrials_2_l,maintaskTrials,83580,EXP8c,0,0,ontime,8
218,pass,6345b7f49677d36bd07c5a10,EXP8c_FJ,0,83580f8a886e834911f97058709a23a6ae5fc38fd5de045c2211491d55303283,3363.250174999237,False,keypress,EXP8c_testRsp,487,[],choice-response,Lab,636e065bbae6d6e5860db41b,2022-11-11 03:22:51-05:00,single_300ms_late_delay_2_tone_Lab_5,3572,333,EXP8c_maintaskTrials_2_l,maintaskTrials,83580,EXP8c,0,0,late,5
219,pass,6345b7f49677d36bd07c5a10,EXP8c_FJ,0,83580f8a886e834911f97058709a23a6ae5fc38fd5de045c2211491d55303283,3363.250174999237,False,keypress,EXP8c_testRsp,395,[],choice-response,Lab,636e065bbae6d6e5860db41b,2022-11-11 03:22:51-05:00,single_300ms_early_delay_2_tone_Lab_7,3332,334,EXP8c_maintaskTrials_2_l,maintaskTrials,83580,EXP8c,0,0,early,7
220,pass,6345b7f49677d36bd07c5a10,EXP8c_FJ,0,83580f8a886e834911f97058709a23a6ae5fc38fd5de045c2211491d55303283,3363.250174999237,False,keypress,EXP8c_testRsp,838,[],choice-response,Lab,636e065bbae6d6e5860db41b,2022-11-11 03:22:51-05:00,single_300ms_late_delay_2_tone_Lab_8,3991,335,EXP8c_maintaskTrials_2_l,maintaskTrials,83580,EXP8c,0,0,late,8
221,pass,6345b7f49677d36bd07c5a10,EXP8c_FJ,0,83580f8a886e834911f97058709a23a6ae5fc38fd5de045c2211491d55303283,3363.250174999237,False,keypress,EXP8c_testRsp,744,[],choice-response,Lab,636e065bbae6d6e5860db41b,2022-11-11 03:22:51-05:00,single_300ms_early_delay_2_tone_Lab_5,3622,337,EXP8c_maintaskTrials_2_l,maintaskTrials,83580,EXP8c,0,0,early,5
222,pass,6345b7f49677d36bd07c5a10,EXP8c_FJ,0,83580f8a886e834911f97058709a23a6ae5fc38fd5de045c2211491d55303283,3363.250174999237,False,keypress,EXP8c_testRsp,481,[],choice-response,Lab,636e065bbae6d6e5860db41b,2022-11-11 03:22:51-05:00,single_300ms_ontime_delay_2_tone_Lab_4,3459,338,EXP8c_maintaskTrials_2_s,maintaskTrials,83580,EXP8c,0,0,ontime,4
223,pass,6345b7f49677d36bd07c5a10,EXP8c_FJ,0,83580f8a886e834911f97058709a23a6ae5fc38fd5de045c2211491d55303283,3363.250174999237,False,keypress,EXP8c_testRsp,957,[],choice-response,Lap,636e065bbae6d6e5860db41b,2022-11-11 03:22:51-05:00,single_300ms_ontime_delay_2_tone_Lab_2,3883,339,EXP8c_maintaskTrials_2_s,maintaskTrials,83580,EXP8c,0,1,ontime,2
224,pass,6345b7f49677d36bd07c5a10,EXP8c_FJ,0,83580f8a886e834911f97058709a23a6ae5fc38fd5de045c2211491d55303283,3363.250174999237,False,keypress,EXP8c_testRsp,325,[],choice-response,Lab,636e065bbae6d6e5860db41b,2022-11-11 03:22:51-05:00,single_300ms_late_delay_2_tone_Lab_6,3426,340,EXP8c_maintaskTrials_2_l,maintaskTrials,83580,EXP8c,0,0,late,6
225,pass,6345b7f49677d36bd07c5a10,EXP8c_FJ,0,83580f8a886e834911f97058709a23a6ae5fc38fd5de045c2211491d55303283,3363.250174999237,False,keypress,EXP8c_testRsp,724,[],choice-response,Lap,636e065bbae6d6e5860db41b,2022-11-11 03:22:51-05:00,single_300ms_ontime_delay_2_tone_Lab_1,3639,341,EXP8c_maintaskTrials_2_s,maintaskTrials,83580,EXP8c,0,1,ontime,1
226,pass,6345b7f49677d36bd07c5a10,EXP8c_FJ,0,83580f8a886e834911f97058709a23a6ae5fc38fd5de045c2211491d55303283,3363.250174999237,False,keypress,EXP8c_testRsp,642,[],choice-response,Lap,636e065bbae6d6e5860db41b,2022-11-11 03:22:51-05:00,single_300ms_ontime_delay_2_tone_Lab_5,3620,342,EXP8c_maintaskTrials_2_l,maintaskTrials,83580,EXP8c,0,1,ontime,5
227,pass,6345b7f49677d36bd07c5a10,EXP8c_FJ,0,83580f8a886e834911f97058709a23a6ae5fc38fd5de045c2211491d55303283,3363.250174999237,False,keypress,EXP8c_testRsp,512,[],choice-response,Lap,636e065bbae6d6e5860db41b,2022-11-11 03:22:51-05:00,single_300ms_early_delay_2_tone_Lab_1,3306,343,EXP8c_maintaskTrials_2_s,maintaskTrials,83580,EXP8c,0,1,early,1
228,pass,6345b7f49677d36bd07c5a10,EXP8c_FJ,0,83580f8a886e834911f97058709a23a6ae5fc38fd5de045c2211491d55303283,3363.250174999237,False,keypress,EXP8c_testRsp,566,[],choice-response,Lap,636e065bbae6d6e5860db41b,2022-11-11 03:22:51-05:00,single_300ms_early_delay_2_tone_Lab_4,3438,344,EXP8c_maintaskTrials_2_s,maintaskTrials,83580,EXP8c,0,1,early,4
229,pass,6345b7f49677d36bd07c5a10,EXP8c_FJ,0,83580f8a886e834911f97058709a23a6ae5fc38fd5de045c2211491d55303283,3363.250174999237,False,keypress,EXP8c_testRsp,1192,[],choice-response,Lab,636e065bbae6d6e5860db41b,2022-11-11 03:22:51-05:00,single_300ms_early_delay_2_tone_Lab_8,4158,345,EXP8c_maintaskTrials_2_l,maintaskTrials,83580,EXP8c,0,0,early,8
230,pass,6345b7f49677d36bd07c5a10,EXP8c_FJ,0,83580f8a886e834911f97058709a23a6ae5fc38fd5de045c2211491d55303283,3363.250174999237,False,keypress,EXP8c_testRsp,880,[],choice-response,Lab,636e065bbae6d6e5860db41b,2022-11-11 03:22:51-05:00,single_300ms_late_delay_2_tone_Lab_7,4003,346,EXP8c_maintaskTrials_2_l,maintaskTrials,83580,EXP8c,0,0,late,7
231,pass,6345b7f49677d36bd07c5a10,EXP8c_FJ,0,83580f8a886e834911f97058709a23a6ae5fc38fd5de045c2211491d55303283,3363.250174999237,False,keypress,EXP8c_testRsp,1277,[],choice-response,Lab,636e065bbae6d6e5860db41b,2022-11-11 03:22:51-05:00,single_300ms_late_delay_2_tone_Lab_2,4303,347,EXP8c_maintaskTrials_2_s,maintaskTrials,83580,EXP8c,0,0,late,2
232,pass,6345b7f49677d36bd07c5a10,EXP8c_FJ,0,83580f8a886e834911f97058709a23a6ae5fc38fd5de045c2211491d55303283,3363.250174999237,False,keypress,EXP8c_testRsp,237,[],choice-response,Lab,636e065bbae6d6e5860db41b,2022-11-11 03:22:51-05:00,single_300ms_early_delay_2_tone_Lab_6,3144,349,EXP8c_maintaskTrials_2_l,maintaskTrials,83580,EXP8c,0,0,early,6
233,pass,6345b7f49677d36bd07c5a10,EXP8c_FJ,0,83580f8a886e834911f97058709a23a6ae5fc38fd5de045c2211491d55303283,3363.250174999237,False,keypress,EXP8c_testRsp,236,[],choice-response,Lab,636e065bbae6d6e5860db41b,2022-11-11 03:22:51-05:00,single_300ms_late_delay_2_tone_Lab_4,3270,350,EXP8c_maintaskTrials_2_s,maintaskTrials,83580,EXP8c,0,0,late,4
234,pass,6345b7f49677d36bd07c5a10,EXP8c_FJ,0,83580f8a886e834911f97058709a23a6ae5fc38fd5de045c2211491d55303283,3363.250174999237,False,keypress,EXP8c_testRsp,373,[],choice-response,Lap,636e065bbae6d6e5860db41b,2022-11-11 03:22:51-05:00,single_300ms_early_delay_2_tone_Lab_2,3204,351,EXP8c_maintaskTrials_2_s,maintaskTrials,83580,EXP8c,0,1,early,2
235,pass,6345b7f49677d36bd07c5a10,EXP8c_FJ,0,83580f8a886e834911f97058709a23a6ae5fc38fd5de045c2211491d55303283,3363.250174999237,False,keypress,EXP8c_testRsp,786,[],choice-response,Lap,636e065bbae6d6e5860db41b,2022-11-11 03:22:51-05:00,single_300ms_late_delay_2_tone_Lab_3,3824,352,EXP8c_maintaskTrials_2_s,maintaskTrials,83580,EXP8c,0,1,late,3
236,pass,6345b7f49677d36bd07c5a10,EXP8c_FJ,0,83580f8a886e834911f97058709a23a6ae5fc38fd5de045c2211491d55303283,3363.250174999237,False,keypress,EXP8c_testRsp,959,[],choice-response,Lab,636e065bbae6d6e5860db41b,2022-11-11 03:22:51-05:00,single_300ms_ontime_delay_2_tone_Lab_6,3973,353,EXP8c_maintaskTrials_2_l,maintaskTrials,83580,EXP8c,0,0,ontime,6
237,pass,6345b7f49677d36bd07c5a10,EXP8c_FJ,0,83580f8a886e834911f97058709a23a6ae5fc38fd5de045c2211491d55303283,3363.250174999237,False,keypress,EXP8c_testRsp,679,[],choice-response,Lap,636e065bbae6d6e5860db41b,2022-11-11 03:22:51-05:00,single_300ms_ontime_delay_2_tone_Lab_3,3618,354,EXP8c_maintaskTrials_2_s,maintaskTrials,83580,EXP8c,0,1,ontime,3
238,pass,6345b7f49677d36bd07c5a10,EXP8c_FJ,0,83580f8a886e834911f97058709a23a6ae5fc38fd5de045c2211491d55303283,3363.250174999237,False,keypress,EXP8c_testRsp,2268,[],choice-response,Lab,636e065bbae6d6e5860db41b,2022-11-11 03:22:51-05:00,single_300ms_early_delay_2_tone_Lab_3,5179,355,EXP8c_maintaskTrials_2_s,maintaskTrials,83580,EXP8c,0,0,early,3
239,pass,6345b7f49677d36bd07c5a10,EXP8c_FJ,0,83580f8a886e834911f97058709a23a6ae5fc38fd5de045c2211491d55303283,3363.250174999237,False,keypress,EXP8c_testRsp,1289,[],choice-response,Lab,636e065bbae6d6e5860db41b,2022-11-11 03:22:51-05:00,single_300ms_late_delay_2_tone_Lab_1,4270,356,EXP8c_maintaskTrials_2_s,maintaskTrials,83580,EXP8c,0,0,late,1
240,pass,6345b7f49677d36bd07c5a10,EXP8c_FJ,0,83580f8a886e834911f97058709a23a6ae5fc38fd5de045c2211491d55303283,3363.250174999237,False,keypress,EXP8c_testRsp,3347,[],choice-response,Lap,636e065bbae6d6e5860db41b,2022-11-11 03:22:51-05:00,single_300ms_ontime_delay_2_tone_Lab_1,6252,357,EXP8c_maintaskTrials_2_s,maintaskTrials,83580,EXP8c,0,1,ontime,1
241,pass,6345b7f49677d36bd07c5a10,EXP8c_FJ,0,83580f8a886e834911f97058709a23a6ae5fc38fd5de045c2211491d55303283,3363.250174999237,False,keypress,EXP8c_testRsp,637,[],choice-response,Lap,636e065bbae6d6e5860db41b,2022-11-11 03:22:51-05:00,single_300ms_early_delay_2_tone_Lab_1,3444,358,EXP8c_maintaskTrials_2_s,maintaskTrials,83580,EXP8c,0,1,early,1
242,pass,6345b7f49677d36bd07c5a10,EXP8c_FJ,0,83580f8a886e834911f97058709a23a6ae5fc38fd5de045c2211491d55303283,3363.250174999237,False,keypress,EXP8c_testRsp,567,[],choice-response,Lap,636e065bbae6d6e5860db41b,2022-11-11 03:22:51-05:00,single_300ms_late_delay_2_tone_Lab_4,3625,359,EXP8c_maintaskTrials_2_s,maintaskTrials,83580,EXP8c,0,1,late,4
243,pass,6345b7f49677d36bd07c5a10,EXP8c_FJ,0,83580f8a886e834911f97058709a23a6ae5fc38fd5de045c2211491d55303283,3363.250174999237,False,keypress,EXP8c_testRsp,675,[],choice-response,Lab,636e065bbae6d6e5860db41b,2022-11-11 03:22:51-05:00,single_300ms_ontime_delay_2_tone_Lab_6,3656,361,EXP8c_maintaskTrials_2_l,maintaskTrials,83580,EXP8c,0,0,ontime,6
244,pass,6345b7f49677d36bd07c5a10,EXP8c_FJ,0,83580f8a886e834911f97058709a23a6ae5fc38fd5de045c2211491d55303283,3363.250174999237,False,keypress,EXP8c_testRsp,222,[],choice-response,Lab,636e065bbae6d6e5860db41b,2022-11-11 03:22:51-05:00,single_300ms_ontime_delay_2_tone_Lab_8,3270,362,EXP8c_maintaskTrials_2_l,maintaskTrials,83580,EXP8c,0,0,ontime,8
245,pass,6345b7f49677d36bd07c5a10,EXP8c_FJ,0,83580f8a886e834911f97058709a23a6ae5fc38fd5de045c2211491d55303283,3363.250174999237,False,keypress,EXP8c_testRsp,398,[],choice-response,Lap,636e065bbae6d6e5860db41b,2022-11-11 03:22:51-05:00,single_300ms_early_delay_2_tone_Lab_3,3298,363,EXP8c_maintaskTrials_2_s,maintaskTrials,83580,EXP8c,0,1,early,3
246,pass,6345b7f49677d36bd07c5a10,EXP8c_FJ,0,83580f8a886e834911f97058709a23a6ae5fc38fd5de045c2211491d55303283,3363.250174999237,False,keypress,EXP8c_testRsp,107,[],choice-response,Lab,636e065bbae6d6e5860db41b,2022-11-11 03:22:51-05:00,single_300ms_late_delay_2_tone_Lab_5,3193,364,EXP8c_maintaskTrials_2_l,maintaskTrials,83580,EXP8c,0,0,late,5
247,pass,6345b7f49677d36bd07c5a10,EXP8c_FJ,0,83580f8a886e834911f97058709a23a6ae5fc38fd5de045c2211491d55303283,3363.250174999237,False,keypress,EXP8c_testRsp,100,[],choice-response,Lab,636e065bbae6d6e5860db41b,2022-11-11 03:22:51-05:00,single_300ms_ontime_delay_2_tone_Lab_5,3094,365,EXP8c_maintaskTrials_2_l,maintaskTrials,83580,EXP8c,0,0,ontime,5
248,pass,6345b7f49677d36bd07c5a10,EXP8c_FJ,0,83580f8a886e834911f97058709a23a6ae5fc38fd5de045c2211491d55303283,3363.250174999237,False,keypress,EXP8c_testRsp,197,[],choice-response,Lab,636e065bbae6d6e5860db41b,2022-11-11 03:22:51-05:00,single_300ms_late_delay_2_tone_Lab_6,3306,366,EXP8c_maintaskTrials_2_l,maintaskTrials,83580,EXP8c,0,0,late,6
249,pass,6345b7f49677d36bd07c5a10,EXP8c_FJ,0,83580f8a886e834911f97058709a23a6ae5fc38fd5de045c2211491d55303283,3363.250174999237,False,keypress,EXP8c_testRsp,192,[],choice-response,Lab,636e065bbae6d6e5860db41b,2022-11-11 03:22:51-05:00,single_300ms_ontime_delay_2_tone_Lab_3,3148,367,EXP8c_maintaskTrials_2_s,maintaskTrials,83580,EXP8c,0,0,ontime,3
250,pass,6345b7f49677d36bd07c5a10,EXP8c_FJ,0,83580f8a886e834911f97058709a23a6ae5fc38fd5de045c2211491d55303283,3363.250174999237,False,keypress,EXP8c_testRsp,278,[],choice-response,Lab,636e065bbae6d6e5860db41b,2022-11-11 03:22:51-05:00,single_300ms_ontime_delay_2_tone_Lab_4,3227,368,EXP8c_maintaskTrials_2_s,maintaskTrials,83580,EXP8c,0,0,ontime,4
251,pass,6345b7f49677d36bd07c5a10,EXP8c_FJ,0,83580f8a886e834911f97058709a23a6ae5fc38fd5de045c2211491d55303283,3363.250174999237,False,keypress,EXP8c_testRsp,439,[],choice-response,Lap,636e065bbae6d6e5860db41b,2022-11-11 03:22:51-05:00,single_300ms_late_delay_2_tone_Lab_2,3486,369,EXP8c_maintaskTrials_2_s,maintaskTrials,83580,EXP8c,0,1,late,2
252,pass,6345b7f49677d36bd07c5a10,EXP8c_FJ,0,83580f8a886e834911f97058709a23a6ae5fc38fd5de045c2211491d55303283,3363.250174999237,False,keypress,EXP8c_testRsp,46,[],choice-response,Lab,636e065bbae6d6e5860db41b,2022-11-11 03:22:51-05:00,single_300ms_early_delay_2_tone_Lab_6,2954,370,EXP8c_maintaskTrials_2_l,maintaskTrials,83580,EXP8c,0,0,early,6
253,pass,6345b7f49677d36bd07c5a10,EXP8c_FJ,0,83580f8a886e834911f97058709a23a6ae5fc38fd5de045c2211491d55303283,3363.250174999237,False,keypress,EXP8c_testRsp,341,[],choice-response,Lap,636e065bbae6d6e5860db41b,2022-11-11 03:22:51-05:00,single_300ms_early_delay_2_tone_Lab_4,3275,371,EXP8c_maintaskTrials_2_s,maintaskTrials,83580,EXP8c,0,1,early,4
254,pass,6345b7f49677d36bd07c5a10,EXP8c_FJ,0,83580f8a886e834911f97058709a23a6ae5fc38fd5de045c2211491d55303283,3363.250174999237,False,keypress,EXP8c_testRsp,351,[],choice-response,Lab,636e065bbae6d6e5860db41b,2022-11-11 03:22:51-05:00,single_300ms_late_delay_2_tone_Lab_3,3392,373,EXP8c_maintaskTrials_2_s,maintaskTrials,83580,EXP8c,0,0,late,3
255,pass,6345b7f49677d36bd07c5a10,EXP8c_FJ,0,83580f8a886e834911f97058709a23a6ae5fc38fd5de045c2211491d55303283,3363.250174999237,False,keypress,EXP8c_testRsp,288,[],choice-response,Lab,636e065bbae6d6e5860db41b,2022-11-11 03:22:51-05:00,single_300ms_late_delay_2_tone_Lab_8,3388,374,EXP8c_maintaskTrials_2_l,maintaskTrials,83580,EXP8c,0,0,late,8
256,pass,6345b7f49677d36bd07c5a10,EXP8c_FJ,0,83580f8a886e834911f97058709a23a6ae5fc38fd5de045c2211491d55303283,3363.250174999237,False,keypress,EXP8c_testRsp,173,[],choice-response,Lab,636e065bbae6d6e5860db41b,2022-11-11 03:22:51-05:00,single_300ms_early_delay_2_tone_Lab_7,3108,375,EXP8c_maintaskTrials_2_l,maintaskTrials,83580,EXP8c,0,0,early,7
257,pass,6345b7f49677d36bd07c5a10,EXP8c_FJ,0,83580f8a886e834911f97058709a23a6ae5fc38fd5de045c2211491d55303283,3363.250174999237,False,keypress,EXP8c_testRsp,518,[],choice-response,Lap,636e065bbae6d6e5860db41b,2022-11-11 03:22:51-05:00,single_300ms_early_delay_2_tone_Lab_2,3324,376,EXP8c_maintaskTrials_2_s,maintaskTrials,83580,EXP8c,0,1,early,2
258,pass,6345b7f49677d36bd07c5a10,EXP8c_FJ,0,83580f8a886e834911f97058709a23a6ae5fc38fd5de045c2211491d55303283,3363.250174999237,False,keypress,EXP8c_testRsp,257,[],choice-response,Lab,636e065bbae6d6e5860db41b,2022-11-11 03:22:51-05:00,single_300ms_early_delay_2_tone_Lab_5,3139,377,EXP8c_maintaskTrials_2_l,maintaskTrials,83580,EXP8c,0,0,early,5
259,pass,6345b7f49677d36bd07c5a10,EXP8c_FJ,0,83580f8a886e834911f97058709a23a6ae5fc38fd5de045c2211491d55303283,3363.250174999237,False,keypress,EXP8c_testRsp,667,[],choice-response,Lab,636e065bbae6d6e5860db41b,2022-11-11 03:22:51-05:00,single_300ms_late_delay_2_tone_Lab_1,3689,378,EXP8c_maintaskTrials_2_s,maintaskTrials,83580,EXP8c,0,0,late,1
260,pass,6345b7f49677d36bd07c5a10,EXP8c_FJ,0,83580f8a886e834911f97058709a23a6ae5fc38fd5de045c2211491d55303283,3363.250174999237,False,keypress,EXP8c_testRsp,110,[],choice-response,Lab,636e065bbae6d6e5860db41b,2022-11-11 03:22:51-05:00,single_300ms_ontime_delay_2_tone_Lab_7,3144,379,EXP8c_maintaskTrials_2_l,maintaskTrials,83580,EXP8c,0,0,ontime,7
261,pass,6345b7f49677d36bd07c5a10,EXP8c_FJ,0,83580f8a886e834911f97058709a23a6ae5fc38fd5de045c2211491d55303283,3363.250174999237,False,keypress,EXP8c_testRsp,165,[],choice-response,Lab,636e065bbae6d6e5860db41b,2022-11-11 03:22:51-05:00,single_300ms_early_delay_2_tone_Lab_8,3146,380,EXP8c_maintaskTrials_2_l,maintaskTrials,83580,EXP8c,0,0,early,8
262,pass,6345b7f49677d36bd07c5a10,EXP8c_FJ,0,83580f8a886e834911f97058709a23a6ae5fc38fd5de045c2211491d55303283,3363.250174999237,False,keypress,EXP8c_testRsp,184,[],choice-response,Lab,636e065bbae6d6e5860db41b,2022-11-11 03:22:51-05:00,single_300ms_ontime_delay_2_tone_Lab_2,3117,381,EXP8c_maintaskTrials_2_s,maintaskTrials,83580,EXP8c,0,0,ontime,2
263,pass,6345b7f49677d36bd07c5a10,EXP8c_FJ,0,83580f8a886e834911f97058709a23a6ae5fc38fd5de045c2211491d55303283,3363.250174999237,False,keypress,EXP8c_testRsp,291,[],choice-response,Lab,636e065bbae6d6e5860db41b,2022-11-11 03:22:51-05:00,single_300ms_late_delay_2_tone_Lab_7,3410,382,EXP8c_maintaskTrials_2_l,maintaskTrials,83580,EXP8c,0,0,late,7
264,pass,6345b7f49677d36bd07c5a10,EXP8c_FJ,0,83580f8a886e834911f97058709a23a6ae5fc38fd5de045c2211491d55303283,3363.250174999237,False,keypress,EXP8c_testRsp,267,[],choice-response,Lab,636e065bbae6d6e5860db41b,2022-11-11 03:22:51-05:00,single_300ms_ontime_delay_2_tone_Lab_7,3297,383,EXP8c_maintaskTrials_2_l,maintaskTrials,83580,EXP8c,0,0,ontime,7
265,pass,6345b7f49677d36bd07c5a10,EXP8c_FJ,0,83580f8a886e834911f97058709a23a6ae5fc38fd5de045c2211491d55303283,3363.250174999237,False,keypress,EXP8c_testRsp,510,[],choice-response,Lab,636e065bbae6d6e5860db41b,2022-11-11 03:22:51-05:00,single_300ms_late_delay_2_tone_Lab_7,3643,385,EXP8c_maintaskTrials_2_l,maintaskTrials,83580,EXP8c,0,0,late,7
266,pass,6345b7f49677d36bd07c5a10,EXP8c_FJ,0,83580f8a886e834911f97058709a23a6ae5fc38fd5de045c2211491d55303283,3363.250174999237,False,keypress,EXP8c_testRsp,339,[],choice-response,Lab,636e065bbae6d6e5860db41b,2022-11-11 03:22:51-05:00,single_300ms_late_delay_2_tone_Lab_6,3409,386,EXP8c_maintaskTrials_2_l,maintaskTrials,83580,EXP8c,0,0,late,6
267,pass,6345b7f49677d36bd07c5a10,EXP8c_FJ,0,83580f8a886e834911f97058709a23a6ae5fc38fd5de045c2211491d55303283,3363.250174999237,False,keypress,EXP8c_testRsp,500,[],choice-response,Lap,636e065bbae6d6e5860db41b,2022-11-11 03:22:51-05:00,single_300ms_late_delay_2_tone_Lab_4,3548,387,EXP8c_maintaskTrials_2_s,maintaskTrials,83580,EXP8c,0,1,late,4
268,pass,6345b7f49677d36bd07c5a10,EXP8c_FJ,0,83580f8a886e834911f97058709a23a6ae5fc38fd5de045c2211491d55303283,3363.250174999237,False,keypress,EXP8c_testRsp,1465,[],choice-response,Lab,636e065bbae6d6e5860db41b,2022-11-11 03:22:51-05:00,single_300ms_early_delay_2_tone_Lab_4,4339,388,EXP8c_maintaskTrials_2_s,maintaskTrials,83580,EXP8c,0,0,early,4
269,pass,6345b7f49677d36bd07c5a10,EXP8c_FJ,0,83580f8a886e834911f97058709a23a6ae5fc38fd5de045c2211491d55303283,3363.250174999237,False,keypress,EXP8c_testRsp,650,[],choice-response,Lab,636e065bbae6d6e5860db41b,2022-11-11 03:22:51-05:00,single_300ms_early_delay_2_tone_Lab_8,3609,389,EXP8c_maintaskTrials_2_l,maintaskTrials,83580,EXP8c,0,0,early,8
270,pass,6345b7f49677d36bd07c5a10,EXP8c_FJ,0,83580f8a886e834911f97058709a23a6ae5fc38fd5de045c2211491d55303283,3363.250174999237,False,keypress,EXP8c_testRsp,552,[],choice-response,Lab,636e065bbae6d6e5860db41b,2022-11-11 03:22:51-05:00,single_300ms_late_delay_2_tone_Lab_8,3672,390,EXP8c_maintaskTrials_2_l,maintaskTrials,83580,EXP8c,0,0,late,8
271,pass,6345b7f49677d36bd07c5a10,EXP8c_FJ,0,83580f8a886e834911f97058709a23a6ae5fc38fd5de045c2211491d55303283,3363.250174999237,False,keypress,EXP8c_testRsp,564,[],choice-response,Lab,636e065bbae6d6e5860db41b,2022-11-11 03:22:51-05:00,single_300ms_ontime_delay_2_tone_Lab_8,3585,391,EXP8c_maintaskTrials_2_l,maintaskTrials,83580,EXP8c,0,0,ontime,8
272,pass,6345b7f49677d36bd07c5a10,EXP8c_FJ,0,83580f8a886e834911f97058709a23a6ae5fc38fd5de045c2211491d55303283,3363.250174999237,False,keypress,EXP8c_testRsp,157,[],choice-response,Lab,636e065bbae6d6e5860db41b,2022-11-11 03:22:51-05:00,single_300ms_early_delay_2_tone_Lab_7,3098,392,EXP8c_maintaskTrials_2_l,maintaskTrials,83580,EXP8c,0,0,early,7
273,pass,6345b7f49677d36bd07c5a10,EXP8c_FJ,0,83580f8a886e834911f97058709a23a6ae5fc38fd5de045c2211491d55303283,3363.250174999237,False,keypress,EXP8c_testRsp,111,[],choice-response,Lap,636e065bbae6d6e5860db41b,2022-11-11 03:22:51-05:00,single_300ms_ontime_delay_2_tone_Lab_3,3034,393,EXP8c_maintaskTrials_2_s,maintaskTrials,83580,EXP8c,0,1,ontime,3
274,pass,6345b7f49677d36bd07c5a10,EXP8c_FJ,0,83580f8a886e834911f97058709a23a6ae5fc38fd5de045c2211491d55303283,3363.250174999237,False,keypress,EXP8c_testRsp,298,[],choice-response,Lap,636e065bbae6d6e5860db41b,2022-11-11 03:22:51-05:00,single_300ms_ontime_delay_2_tone_Lab_1,3177,394,EXP8c_maintaskTrials_2_s,maintaskTrials,83580,EXP8c,0,1,ontime,1
275,pass,6345b7f49677d36bd07c5a10,EXP8c_FJ,0,83580f8a886e834911f97058709a23a6ae5fc38fd5de045c2211491d55303283,3363.250174999237,False,keypress,EXP8c_testRsp,548,[],choice-response,Lap,636e065bbae6d6e5860db41b,2022-11-11 03:22:51-05:00,single_300ms_late_delay_2_tone_Lab_1,3553,395,EXP8c_maintaskTrials_2_s,maintaskTrials,83580,EXP8c,0,1,late,1
276,pass,6345b7f49677d36bd07c5a10,EXP8c_FJ,0,83580f8a886e834911f97058709a23a6ae5fc38fd5de045c2211491d55303283,3363.250174999237,False,keypress,EXP8c_testRsp,543,[],choice-response,Lap,636e065bbae6d6e5860db41b,2022-11-11 03:22:51-05:00,single_300ms_early_delay_2_tone_Lab_1,3408,397,EXP8c_maintaskTrials_2_s,maintaskTrials,83580,EXP8c,0,1,early,1
277,pass,6345b7f49677d36bd07c5a10,EXP8c_FJ,0,83580f8a886e834911f97058709a23a6ae5fc38fd5de045c2211491d55303283,3363.250174999237,False,keypress,EXP8c_testRsp,389,[],choice-response,Lap,636e065bbae6d6e5860db41b,2022-11-11 03:22:51-05:00,single_300ms_early_delay_2_tone_Lab_3,3238,398,EXP8c_maintaskTrials_2_s,maintaskTrials,83580,EXP8c,0,1,early,3
278,pass,6345b7f49677d36bd07c5a10,EXP8c_FJ,0,83580f8a886e834911f97058709a23a6ae5fc38fd5de045c2211491d55303283,3363.250174999237,False,keypress,EXP8c_testRsp,89,[],choice-response,Lab,636e065bbae6d6e5860db41b,2022-11-11 03:22:51-05:00,single_300ms_ontime_delay_2_tone_Lab_5,3074,399,EXP8c_maintaskTrials_2_l,maintaskTrials,83580,EXP8c,0,0,ontime,5
279,pass,6345b7f49677d36bd07c5a10,EXP8c_FJ,0,83580f8a886e834911f97058709a23a6ae5fc38fd5de045c2211491d55303283,3363.250174999237,False,keypress,EXP8c_testRsp,423,[],choice-response,Lab,636e065bbae6d6e5860db41b,2022-11-11 03:22:51-05:00,single_300ms_late_delay_2_tone_Lab_5,3515,400,EXP8c_maintaskTrials_2_l,maintaskTrials,83580,EXP8c,0,0,late,5
280,pass,6345b7f49677d36bd07c5a10,EXP8c_FJ,0,83580f8a886e834911f97058709a23a6ae5fc38fd5de045c2211491d55303283,3363.250174999237,False,keypress,EXP8c_testRsp,440,[],choice-response,Lab,636e065bbae6d6e5860db41b,2022-11-11 03:22:51-05:00,single_300ms_early_delay_2_tone_Lab_2,3298,401,EXP8c_maintaskTrials_2_s,maintaskTrials,83580,EXP8c,0,0,early,2
281,pass,6345b7f49677d36bd07c5a10,EXP8c_FJ,0,83580f8a886e834911f97058709a23a6ae5fc38fd5de045c2211491d55303283,3363.250174999237,False,keypress,EXP8c_testRsp,299,[],choice-response,Lab,636e065bbae6d6e5860db41b,2022-11-11 03:22:51-05:00,single_300ms_early_delay_2_tone_Lab_6,3169,402,EXP8c_maintaskTrials_2_l,maintaskTrials,83580,EXP8c,0,0,early,6
282,pass,6345b7f49677d36bd07c5a10,EXP8c_FJ,0,83580f8a886e834911f97058709a23a6ae5fc38fd5de045c2211491d55303283,3363.250174999237,False,keypress,EXP8c_testRsp,223,[],choice-response,Lab,636e065bbae6d6e5860db41b,2022-11-11 03:22:51-05:00,single_300ms_ontime_delay_2_tone_Lab_6,3216,403,EXP8c_maintaskTrials_2_l,maintaskTrials,83580,EXP8c,0,0,ontime,6
283,pass,6345b7f49677d36bd07c5a10,EXP8c_FJ,0,83580f8a886e834911f97058709a23a6ae5fc38fd5de045c2211491d55303283,3363.250174999237,False,keypress,EXP8c_testRsp,828,[],choice-response,Lap,636e065bbae6d6e5860db41b,2022-11-11 03:22:51-05:00,single_300ms_ontime_delay_2_tone_Lab_2,3820,404,EXP8c_maintaskTrials_2_s,maintaskTrials,83580,EXP8c,0,1,ontime,2
284,pass,6345b7f49677d36bd07c5a10,EXP8c_FJ,0,83580f8a886e834911f97058709a23a6ae5fc38fd5de045c2211491d55303283,3363.250174999237,False,keypress,EXP8c_testRsp,280,[],choice-response,Lab,636e065bbae6d6e5860db41b,2022-11-11 03:22:51-05:00,single_300ms_late_delay_2_tone_Lab_3,3294,405,EXP8c_maintaskTrials_2_s,maintaskTrials,83580,EXP8c,0,0,late,3
285,pass,6345b7f49677d36bd07c5a10,EXP8c_FJ,0,83580f8a886e834911f97058709a23a6ae5fc38fd5de045c2211491d55303283,3363.250174999237,False,keypress,EXP8c_testRsp,295,[],choice-response,Lab,636e065bbae6d6e5860db41b,2022-11-11 03:22:51-05:00,single_300ms_late_delay_2_tone_Lab_2,3343,406,EXP8c_maintaskTrials_2_s,maintaskTrials,83580,EXP8c,0,0,late,2
286,pass,6345b7f49677d36bd07c5a10,EXP8c_FJ,0,83580f8a886e834911f97058709a23a6ae5fc38fd5de045c2211491d55303283,3363.250174999237,False,keypress,EXP8c_testRsp,322,[],choice-response,Lab,636e065bbae6d6e5860db41b,2022-11-11 03:22:51-05:00,single_300ms_ontime_delay_2_tone_Lab_4,3257,407,EXP8c_maintaskTrials_2_s,maintaskTrials,83580,EXP8c,0,0,ontime,4
287,pass,6345b7f49677d36bd07c5a10,EXP8c_FJ,0,83580f8a886e834911f97058709a23a6ae5fc38fd5de045c2211491d55303283,3363.250174999237,False,keypress,EXP8c_testRsp,1265,[],choice-response,Lab,636e065bbae6d6e5860db41b,2022-11-11 03:22:51-05:00,single_300ms_early_delay_2_tone_Lab_5,4124,409,EXP8c_maintaskTrials_2_l,maintaskTrials,83580,EXP8c,0,0,early,5
