expt_id,group_id,network_error_repeat,participant_id,participation_duration,response_correct,response_mode,response_name,response_rt,response_target,response_type,response_value,session_id,stimuli_presented,trial_duration,trial_num,trial_template
607affb9d112a7e23c03a96d,Group_FJ,0,63fc4b75264600eb92114d26d41b3f1cb008710660fa75110acedf0fc710458f,1909.0732100009918,False,click,survey_noise,4114,[],choice-response,1,620ec53fa0554592d9045bb5,logistics_noise,5284,1,logisticsQuestionnaire
607affb9d112a7e23c03a96d,Group_FJ,0,63fc4b75264600eb92114d26d41b3f1cb008710660fa75110acedf0fc710458f,1909.0732100009918,False,click,survey_headphone1,2420,[],choice-response,Yes,620ec53fa0554592d9045bb5,logistic_headphone1,2994,2,logisticsQuestionnaire
607affb9d112a7e23c03a96d,Group_FJ,0,63fc4b75264600eb92114d26d41b3f1cb008710660fa75110acedf0fc710458f,1909.0732100009918,False,click,survey_headphone2,5969,[],choice-response,Wired Headphones,620ec53fa0554592d9045bb5,logistic_headphone2,6693,3,logisticsQuestionnaire
607affb9d112a7e23c03a96d,Group_FJ,0,63fc4b75264600eb92114d26d41b3f1cb008710660fa75110acedf0fc710458f,1909.0732100009918,False,keypress,prescreenRsp_laglack,7921,[],choice-response,Lag,620ec53fa0554592d9045bb5,Lack,8677,4,PrescreenTrials
607affb9d112a7e23c03a96d,Group_FJ,0,63fc4b75264600eb92114d26d41b3f1cb008710660fa75110acedf0fc710458f,1909.0732100009918,False,keypress,prescreenRsp_bagback,2308,[],choice-response,Bag,620ec53fa0554592d9045bb5,Bag,3269,5,PrescreenTrials
607affb9d112a7e23c03a96d,Group_FJ,0,63fc4b75264600eb92114d26d41b3f1cb008710660fa75110acedf0fc710458f,1909.0732100009918,False,keypress,prescreenRsp_laglack,1775,[],choice-response,Lag,620ec53fa0554592d9045bb5,Lag,2789,6,PrescreenTrials
607affb9d112a7e23c03a96d,Group_FJ,0,63fc4b75264600eb92114d26d41b3f1cb008710660fa75110acedf0fc710458f,1909.0732100009918,False,keypress,prescreenRsp_cabcap,1342,[],choice-response,Cab,620ec53fa0554592d9045bb5,Cab,2330,7,PrescreenTrials
607affb9d112a7e23c03a96d,Group_FJ,0,63fc4b75264600eb92114d26d41b3f1cb008710660fa75110acedf0fc710458f,1909.0732100009918,False,keypress,prescreenRsp_beadbeat,1237,[],choice-response,Bead,620ec53fa0554592d9045bb5,Bead,2258,8,PrescreenTrials
607affb9d112a7e23c03a96d,Group_FJ,0,63fc4b75264600eb92114d26d41b3f1cb008710660fa75110acedf0fc710458f,1909.0732100009918,False,keypress,prescreenRsp_lablap,1290,[],choice-response,Lab,620ec53fa0554592d9045bb5,Lab,2277,9,PrescreenTrials
607affb9d112a7e23c03a96d,Group_FJ,0,63fc4b75264600eb92114d26d41b3f1cb008710660fa75110acedf0fc710458f,1909.0732100009918,False,keypress,prescreenRsp_fadfat,1239,[],choice-response,Fad,620ec53fa0554592d9045bb5,Fat,2210,10,PrescreenTrials
607affb9d112a7e23c03a96d,Group_FJ,0,63fc4b75264600eb92114d26d41b3f1cb008710660fa75110acedf0fc710458f,1909.0732100009918,False,keypress,prescreenRsp_bagback,1185,[],choice-response,Bag,620ec53fa0554592d9045bb5,Back,1908,11,PrescreenTrials
607affb9d112a7e23c03a96d,Group_FJ,0,63fc4b75264600eb92114d26d41b3f1cb008710660fa75110acedf0fc710458f,1909.0732100009918,False,keypress,prescreenRsp_lablap,1068,[],choice-response,Lab,620ec53fa0554592d9045bb5,Lap,1816,12,PrescreenTrials
607affb9d112a7e23c03a96d,Group_FJ,0,63fc4b75264600eb92114d26d41b3f1cb008710660fa75110acedf0fc710458f,1909.0732100009918,False,keypress,prescreenRsp_cabcap,881,[],choice-response,Cap,620ec53fa0554592d9045bb5,Cap,1614,13,PrescreenTrials
607affb9d112a7e23c03a96d,Group_FJ,0,63fc4b75264600eb92114d26d41b3f1cb008710660fa75110acedf0fc710458f,1909.0732100009918,False,keypress,prescreenRsp_beadbeat,1073,[],choice-response,Bead,620ec53fa0554592d9045bb5,Beat,1874,14,PrescreenTrials
607affb9d112a7e23c03a96d,Group_FJ,0,63fc4b75264600eb92114d26d41b3f1cb008710660fa75110acedf0fc710458f,1909.0732100009918,False,keypress,prescreenRsp_fadfat,805,[],choice-response,Fad,620ec53fa0554592d9045bb5,Fad,2026,15,PrescreenTrials
607affb9d112a7e23c03a96d,Group_FJ,0,63fc4b75264600eb92114d26d41b3f1cb008710660fa75110acedf0fc710458f,1909.0732100009918,False,keypress,prescreenRsp_laglack,1254,[],choice-response,Lack,620ec53fa0554592d9045bb5,Lack,2019,16,PrescreenTrials
607affb9d112a7e23c03a96d,Group_FJ,0,63fc4b75264600eb92114d26d41b3f1cb008710660fa75110acedf0fc710458f,1909.0732100009918,False,keypress,prescreenRsp_lablap,1021,[],choice-response,Lap,620ec53fa0554592d9045bb5,Lap,1799,17,PrescreenTrials
607affb9d112a7e23c03a96d,Group_FJ,0,63fc4b75264600eb92114d26d41b3f1cb008710660fa75110acedf0fc710458f,1909.0732100009918,False,keypress,prescreenRsp_bagback,916,[],choice-response,Bag,620ec53fa0554592d9045bb5,Bag,1839,18,PrescreenTrials
607affb9d112a7e23c03a96d,Group_FJ,0,63fc4b75264600eb92114d26d41b3f1cb008710660fa75110acedf0fc710458f,1909.0732100009918,False,keypress,prescreenRsp_cabcap,984,[],choice-response,Cab,620ec53fa0554592d9045bb5,Cab,1919,19,PrescreenTrials
607affb9d112a7e23c03a96d,Group_FJ,0,63fc4b75264600eb92114d26d41b3f1cb008710660fa75110acedf0fc710458f,1909.0732100009918,False,keypress,prescreenRsp_fadfat,714,[],choice-response,Fad,620ec53fa0554592d9045bb5,Fad,1933,20,PrescreenTrials
607affb9d112a7e23c03a96d,Group_FJ,0,63fc4b75264600eb92114d26d41b3f1cb008710660fa75110acedf0fc710458f,1909.0732100009918,False,keypress,prescreenRsp_cabcap,630,[],choice-response,Cap,620ec53fa0554592d9045bb5,Cap,1348,21,PrescreenTrials
607affb9d112a7e23c03a96d,Group_FJ,0,63fc4b75264600eb92114d26d41b3f1cb008710660fa75110acedf0fc710458f,1909.0732100009918,False,keypress,prescreenRsp_bagback,878,[],choice-response,Back,620ec53fa0554592d9045bb5,Back,1583,22,PrescreenTrials
607affb9d112a7e23c03a96d,Group_FJ,0,63fc4b75264600eb92114d26d41b3f1cb008710660fa75110acedf0fc710458f,1909.0732100009918,False,keypress,prescreenRsp_beadbeat,591,[],choice-response,Bead,620ec53fa0554592d9045bb5,Beat,1353,23,PrescreenTrials
607affb9d112a7e23c03a96d,Group_FJ,0,63fc4b75264600eb92114d26d41b3f1cb008710660fa75110acedf0fc710458f,1909.0732100009918,False,keypress,prescreenRsp_fadfat,625,[],choice-response,Fad,620ec53fa0554592d9045bb5,Fat,1567,24,PrescreenTrials
607affb9d112a7e23c03a96d,Group_FJ,0,63fc4b75264600eb92114d26d41b3f1cb008710660fa75110acedf0fc710458f,1909.0732100009918,False,keypress,prescreenRsp_beadbeat,731,[],choice-response,Bead,620ec53fa0554592d9045bb5,Bead,1710,25,PrescreenTrials
607affb9d112a7e23c03a96d,Group_FJ,0,63fc4b75264600eb92114d26d41b3f1cb008710660fa75110acedf0fc710458f,1909.0732100009918,False,keypress,prescreenRsp_laglack,1692,[],choice-response,Lag,620ec53fa0554592d9045bb5,Lag,2685,26,PrescreenTrials
607affb9d112a7e23c03a96d,Group_FJ,0,63fc4b75264600eb92114d26d41b3f1cb008710660fa75110acedf0fc710458f,1909.0732100009918,False,keypress,prescreenRsp_lablap,858,[],choice-response,Lab,620ec53fa0554592d9045bb5,Lab,1848,27,PrescreenTrials
607affb9d112a7e23c03a96d,Group_FJ,0,63fc4b75264600eb92114d26d41b3f1cb008710660fa75110acedf0fc710458f,1909.0732100009918,False,keypress,prescreenRsp_lablap,573,[],choice-response,Lap,620ec53fa0554592d9045bb5,Lap,1336,28,PrescreenTrials
607affb9d112a7e23c03a96d,Group_FJ,0,63fc4b75264600eb92114d26d41b3f1cb008710660fa75110acedf0fc710458f,1909.0732100009918,False,keypress,prescreenRsp_laglack,794,[],choice-response,Lack,620ec53fa0554592d9045bb5,Lack,1544,29,PrescreenTrials
607affb9d112a7e23c03a96d,Group_FJ,0,63fc4b75264600eb92114d26d41b3f1cb008710660fa75110acedf0fc710458f,1909.0732100009918,False,keypress,prescreenRsp_cabcap,688,[],choice-response,Cab,620ec53fa0554592d9045bb5,Cab,1678,30,PrescreenTrials
607affb9d112a7e23c03a96d,Group_FJ,0,63fc4b75264600eb92114d26d41b3f1cb008710660fa75110acedf0fc710458f,1909.0732100009918,False,keypress,prescreenRsp_bagback,762,[],choice-response,Bag,620ec53fa0554592d9045bb5,Bag,1676,31,PrescreenTrials
607affb9d112a7e23c03a96d,Group_FJ,0,63fc4b75264600eb92114d26d41b3f1cb008710660fa75110acedf0fc710458f,1909.0732100009918,False,keypress,prescreenRsp_cabcap,579,[],choice-response,Cap,620ec53fa0554592d9045bb5,Cap,1299,32,PrescreenTrials
607affb9d112a7e23c03a96d,Group_FJ,0,63fc4b75264600eb92114d26d41b3f1cb008710660fa75110acedf0fc710458f,1909.0732100009918,False,keypress,prescreenRsp_beadbeat,686,[],choice-response,Bead,620ec53fa0554592d9045bb5,Beat,1450,33,PrescreenTrials
607affb9d112a7e23c03a96d,Group_FJ,0,63fc4b75264600eb92114d26d41b3f1cb008710660fa75110acedf0fc710458f,1909.0732100009918,False,keypress,prescreenRsp_laglack,929,[],choice-response,Lag,620ec53fa0554592d9045bb5,Lag,1884,34,PrescreenTrials
607affb9d112a7e23c03a96d,Group_FJ,0,63fc4b75264600eb92114d26d41b3f1cb008710660fa75110acedf0fc710458f,1909.0732100009918,False,keypress,prescreenRsp_bagback,556,[],choice-response,Back,620ec53fa0554592d9045bb5,Back,1260,35,PrescreenTrials
607affb9d112a7e23c03a96d,Group_FJ,0,63fc4b75264600eb92114d26d41b3f1cb008710660fa75110acedf0fc710458f,1909.0732100009918,False,keypress,prescreenRsp_beadbeat,722,[],choice-response,Bead,620ec53fa0554592d9045bb5,Bead,1699,36,PrescreenTrials
607affb9d112a7e23c03a96d,Group_FJ,0,63fc4b75264600eb92114d26d41b3f1cb008710660fa75110acedf0fc710458f,1909.0732100009918,False,keypress,prescreenRsp_fadfat,649,[],choice-response,Fad,620ec53fa0554592d9045bb5,Fat,1569,37,PrescreenTrials
607affb9d112a7e23c03a96d,Group_FJ,0,63fc4b75264600eb92114d26d41b3f1cb008710660fa75110acedf0fc710458f,1909.0732100009918,False,keypress,prescreenRsp_lablap,909,[],choice-response,Lab,620ec53fa0554592d9045bb5,Lab,1863,38,PrescreenTrials
607affb9d112a7e23c03a96d,Group_FJ,0,63fc4b75264600eb92114d26d41b3f1cb008710660fa75110acedf0fc710458f,1909.0732100009918,False,keypress,prescreenRsp_fadfat,518,[],choice-response,Fad,620ec53fa0554592d9045bb5,Fad,1650,39,PrescreenTrials
607affb9d112a7e23c03a96d,Group_FJ,0,63fc4b75264600eb92114d26d41b3f1cb008710660fa75110acedf0fc710458f,1909.0732100009918,False,keypress,prescreenRsp_fadfat,848,[],choice-response,Fad,620ec53fa0554592d9045bb5,Fat,1773,40,PrescreenTrials
607affb9d112a7e23c03a96d,Group_FJ,0,63fc4b75264600eb92114d26d41b3f1cb008710660fa75110acedf0fc710458f,1909.0732100009918,False,keypress,prescreenRsp_cabcap,542,[],choice-response,Cap,620ec53fa0554592d9045bb5,Cap,1286,41,PrescreenTrials
607affb9d112a7e23c03a96d,Group_FJ,0,63fc4b75264600eb92114d26d41b3f1cb008710660fa75110acedf0fc710458f,1909.0732100009918,False,keypress,prescreenRsp_fadfat,434,[],choice-response,Fad,620ec53fa0554592d9045bb5,Fad,1554,42,PrescreenTrials
607affb9d112a7e23c03a96d,Group_FJ,0,63fc4b75264600eb92114d26d41b3f1cb008710660fa75110acedf0fc710458f,1909.0732100009918,False,keypress,prescreenRsp_laglack,742,[],choice-response,Lack,620ec53fa0554592d9045bb5,Lack,1501,43,PrescreenTrials
607affb9d112a7e23c03a96d,Group_FJ,0,63fc4b75264600eb92114d26d41b3f1cb008710660fa75110acedf0fc710458f,1909.0732100009918,False,keypress,prescreenRsp_bagback,564,[],choice-response,Back,620ec53fa0554592d9045bb5,Back,1286,44,PrescreenTrials
607affb9d112a7e23c03a96d,Group_FJ,0,63fc4b75264600eb92114d26d41b3f1cb008710660fa75110acedf0fc710458f,1909.0732100009918,False,keypress,prescreenRsp_beadbeat,541,[],choice-response,Bead,620ec53fa0554592d9045bb5,Beat,1298,45,PrescreenTrials
607affb9d112a7e23c03a96d,Group_FJ,0,63fc4b75264600eb92114d26d41b3f1cb008710660fa75110acedf0fc710458f,1909.0732100009918,False,keypress,prescreenRsp_beadbeat,510,[],choice-response,Bead,620ec53fa0554592d9045bb5,Bead,1492,46,PrescreenTrials
607affb9d112a7e23c03a96d,Group_FJ,0,63fc4b75264600eb92114d26d41b3f1cb008710660fa75110acedf0fc710458f,1909.0732100009918,False,keypress,prescreenRsp_bagback,764,[],choice-response,Bag,620ec53fa0554592d9045bb5,Bag,1687,47,PrescreenTrials
607affb9d112a7e23c03a96d,Group_FJ,0,63fc4b75264600eb92114d26d41b3f1cb008710660fa75110acedf0fc710458f,1909.0732100009918,False,keypress,prescreenRsp_laglack,1301,[],choice-response,Lag,620ec53fa0554592d9045bb5,Lag,2268,48,PrescreenTrials
607affb9d112a7e23c03a96d,Group_FJ,0,63fc4b75264600eb92114d26d41b3f1cb008710660fa75110acedf0fc710458f,1909.0732100009918,False,keypress,prescreenRsp_lablap,455,[],choice-response,Lap,620ec53fa0554592d9045bb5,Lap,1195,49,PrescreenTrials
607affb9d112a7e23c03a96d,Group_FJ,0,63fc4b75264600eb92114d26d41b3f1cb008710660fa75110acedf0fc710458f,1909.0732100009918,False,keypress,prescreenRsp_lablap,615,[],choice-response,Lab,620ec53fa0554592d9045bb5,Lab,1564,50,PrescreenTrials
607affb9d112a7e23c03a96d,Group_FJ,0,63fc4b75264600eb92114d26d41b3f1cb008710660fa75110acedf0fc710458f,1909.0732100009918,False,keypress,prescreenRsp_cabcap,801,[],choice-response,Cab,620ec53fa0554592d9045bb5,Cab,1738,51,PrescreenTrials
607affb9d112a7e23c03a96d,Group_FJ,0,63fc4b75264600eb92114d26d41b3f1cb008710660fa75110acedf0fc710458f,1909.0732100009918,False,keypress,prescreenRsp_cabcap,735,[],choice-response,Cab,620ec53fa0554592d9045bb5,Cab,1537,52,PrescreenTrials
607affb9d112a7e23c03a96d,Group_FJ,0,63fc4b75264600eb92114d26d41b3f1cb008710660fa75110acedf0fc710458f,1909.0732100009918,False,keypress,prescreenRsp_laglack,537,[],choice-response,Lack,620ec53fa0554592d9045bb5,Lack,1296,53,PrescreenTrials
607affb9d112a7e23c03a96d,Group_FJ,0,63fc4b75264600eb92114d26d41b3f1cb008710660fa75110acedf0fc710458f,1909.0732100009918,False,keypress,prescreenRsp_bagback,932,[],choice-response,Back,620ec53fa0554592d9045bb5,Back,1636,54,PrescreenTrials
607affb9d112a7e23c03a96d,Group_FJ,0,63fc4b75264600eb92114d26d41b3f1cb008710660fa75110acedf0fc710458f,1909.0732100009918,False,keypress,prescreenRsp_fadfat,529,[],choice-response,Fad,620ec53fa0554592d9045bb5,Fad,1690,55,PrescreenTrials
607affb9d112a7e23c03a96d,Group_FJ,0,63fc4b75264600eb92114d26d41b3f1cb008710660fa75110acedf0fc710458f,1909.0732100009918,False,keypress,prescreenRsp_lablap,705,[],choice-response,Lab,620ec53fa0554592d9045bb5,Lab,1640,56,PrescreenTrials
607affb9d112a7e23c03a96d,Group_FJ,0,63fc4b75264600eb92114d26d41b3f1cb008710660fa75110acedf0fc710458f,1909.0732100009918,False,keypress,prescreenRsp_bagback,599,[],choice-response,Bag,620ec53fa0554592d9045bb5,Bag,1535,57,PrescreenTrials
607affb9d112a7e23c03a96d,Group_FJ,0,63fc4b75264600eb92114d26d41b3f1cb008710660fa75110acedf0fc710458f,1909.0732100009918,False,keypress,prescreenRsp_lablap,617,[],choice-response,Lap,620ec53fa0554592d9045bb5,Lap,1380,58,PrescreenTrials
607affb9d112a7e23c03a96d,Group_FJ,0,63fc4b75264600eb92114d26d41b3f1cb008710660fa75110acedf0fc710458f,1909.0732100009918,False,keypress,prescreenRsp_cabcap,510,[],choice-response,Cap,620ec53fa0554592d9045bb5,Cap,1226,59,PrescreenTrials
607affb9d112a7e23c03a96d,Group_FJ,0,63fc4b75264600eb92114d26d41b3f1cb008710660fa75110acedf0fc710458f,1909.0732100009918,False,keypress,prescreenRsp_laglack,741,[],choice-response,Lag,620ec53fa0554592d9045bb5,Lag,1724,60,PrescreenTrials
607affb9d112a7e23c03a96d,Group_FJ,0,63fc4b75264600eb92114d26d41b3f1cb008710660fa75110acedf0fc710458f,1909.0732100009918,False,keypress,prescreenRsp_beadbeat,528,[],choice-response,Bead,620ec53fa0554592d9045bb5,Beat,1300,61,PrescreenTrials
607affb9d112a7e23c03a96d,Group_FJ,0,63fc4b75264600eb92114d26d41b3f1cb008710660fa75110acedf0fc710458f,1909.0732100009918,False,keypress,prescreenRsp_beadbeat,606,[],choice-response,Bead,620ec53fa0554592d9045bb5,Bead,1581,62,PrescreenTrials
607affb9d112a7e23c03a96d,Group_FJ,0,63fc4b75264600eb92114d26d41b3f1cb008710660fa75110acedf0fc710458f,1909.0732100009918,False,keypress,prescreenRsp_fadfat,586,[],choice-response,Fad,620ec53fa0554592d9045bb5,Fat,1503,63,PrescreenTrials
607affb9d112a7e23c03a96d,Group_FJ,0,63fc4b75264600eb92114d26d41b3f1cb008710660fa75110acedf0fc710458f,1909.0732100009918,False,keypress,prescreenRsp_bagback,590,[],choice-response,Bag,620ec53fa0554592d9045bb5,Bag,1506,64,PrescreenTrials
607affb9d112a7e23c03a96d,Group_FJ,0,63fc4b75264600eb92114d26d41b3f1cb008710660fa75110acedf0fc710458f,1909.0732100009918,False,keypress,prescreenRsp_beadbeat,646,[],choice-response,Bead,620ec53fa0554592d9045bb5,Beat,1408,65,PrescreenTrials
607affb9d112a7e23c03a96d,Group_FJ,0,63fc4b75264600eb92114d26d41b3f1cb008710660fa75110acedf0fc710458f,1909.0732100009918,False,keypress,prescreenRsp_lablap,661,[],choice-response,Lap,620ec53fa0554592d9045bb5,Lap,1399,66,PrescreenTrials
607affb9d112a7e23c03a96d,Group_FJ,0,63fc4b75264600eb92114d26d41b3f1cb008710660fa75110acedf0fc710458f,1909.0732100009918,False,keypress,prescreenRsp_fadfat,691,[],choice-response,Fad,620ec53fa0554592d9045bb5,Fad,1833,67,PrescreenTrials
607affb9d112a7e23c03a96d,Group_FJ,0,63fc4b75264600eb92114d26d41b3f1cb008710660fa75110acedf0fc710458f,1909.0732100009918,False,keypress,prescreenRsp_cabcap,1294,[],choice-response,Cab,620ec53fa0554592d9045bb5,Cab,2226,68,PrescreenTrials
607affb9d112a7e23c03a96d,Group_FJ,0,63fc4b75264600eb92114d26d41b3f1cb008710660fa75110acedf0fc710458f,1909.0732100009918,False,keypress,prescreenRsp_laglack,2080,[],choice-response,Lag,620ec53fa0554592d9045bb5,Lag,3040,69,PrescreenTrials
607affb9d112a7e23c03a96d,Group_FJ,0,63fc4b75264600eb92114d26d41b3f1cb008710660fa75110acedf0fc710458f,1909.0732100009918,False,keypress,prescreenRsp_fadfat,560,[],choice-response,Fad,620ec53fa0554592d9045bb5,Fat,1492,70,PrescreenTrials
607affb9d112a7e23c03a96d,Group_FJ,0,63fc4b75264600eb92114d26d41b3f1cb008710660fa75110acedf0fc710458f,1909.0732100009918,False,keypress,prescreenRsp_beadbeat,793,[],choice-response,Bead,620ec53fa0554592d9045bb5,Bead,1815,71,PrescreenTrials
607affb9d112a7e23c03a96d,Group_FJ,0,63fc4b75264600eb92114d26d41b3f1cb008710660fa75110acedf0fc710458f,1909.0732100009918,False,keypress,prescreenRsp_cabcap,871,[],choice-response,Cap,620ec53fa0554592d9045bb5,Cap,1591,72,PrescreenTrials
607affb9d112a7e23c03a96d,Group_FJ,0,63fc4b75264600eb92114d26d41b3f1cb008710660fa75110acedf0fc710458f,1909.0732100009918,False,keypress,prescreenRsp_lablap,660,[],choice-response,Lab,620ec53fa0554592d9045bb5,Lab,1592,73,PrescreenTrials
607affb9d112a7e23c03a96d,Group_FJ,0,63fc4b75264600eb92114d26d41b3f1cb008710660fa75110acedf0fc710458f,1909.0732100009918,False,keypress,prescreenRsp_laglack,550,[],choice-response,Lack,620ec53fa0554592d9045bb5,Lack,1304,74,PrescreenTrials
607affb9d112a7e23c03a96d,Group_FJ,0,63fc4b75264600eb92114d26d41b3f1cb008710660fa75110acedf0fc710458f,1909.0732100009918,False,keypress,prescreenRsp_bagback,636,[],choice-response,Back,620ec53fa0554592d9045bb5,Back,1338,75,PrescreenTrials
607affb9d112a7e23c03a96d,Group_FJ,0,63fc4b75264600eb92114d26d41b3f1cb008710660fa75110acedf0fc710458f,1909.0732100009918,False,keypress,prescreenRsp_beadbeat,557,[],choice-response,Bead,620ec53fa0554592d9045bb5,Beat,1325,76,PrescreenTrials
607affb9d112a7e23c03a96d,Group_FJ,0,63fc4b75264600eb92114d26d41b3f1cb008710660fa75110acedf0fc710458f,1909.0732100009918,False,keypress,prescreenRsp_cabcap,614,[],choice-response,Cab,620ec53fa0554592d9045bb5,Cab,1548,77,PrescreenTrials
607affb9d112a7e23c03a96d,Group_FJ,0,63fc4b75264600eb92114d26d41b3f1cb008710660fa75110acedf0fc710458f,1909.0732100009918,False,keypress,prescreenRsp_laglack,1416,[],choice-response,Lag,620ec53fa0554592d9045bb5,Lag,2385,78,PrescreenTrials
607affb9d112a7e23c03a96d,Group_FJ,0,63fc4b75264600eb92114d26d41b3f1cb008710660fa75110acedf0fc710458f,1909.0732100009918,False,keypress,prescreenRsp_bagback,717,[],choice-response,Back,620ec53fa0554592d9045bb5,Back,1425,79,PrescreenTrials
607affb9d112a7e23c03a96d,Group_FJ,0,63fc4b75264600eb92114d26d41b3f1cb008710660fa75110acedf0fc710458f,1909.0732100009918,False,keypress,prescreenRsp_fadfat,377,[],choice-response,Fad,620ec53fa0554592d9045bb5,Fat,1292,80,PrescreenTrials
607affb9d112a7e23c03a96d,Group_FJ,0,63fc4b75264600eb92114d26d41b3f1cb008710660fa75110acedf0fc710458f,1909.0732100009918,False,keypress,prescreenRsp_cabcap,467,[],choice-response,Cap,620ec53fa0554592d9045bb5,Cap,1184,81,PrescreenTrials
607affb9d112a7e23c03a96d,Group_FJ,0,63fc4b75264600eb92114d26d41b3f1cb008710660fa75110acedf0fc710458f,1909.0732100009918,False,keypress,prescreenRsp_bagback,441,[],choice-response,Bag,620ec53fa0554592d9045bb5,Bag,1367,82,PrescreenTrials
607affb9d112a7e23c03a96d,Group_FJ,0,63fc4b75264600eb92114d26d41b3f1cb008710660fa75110acedf0fc710458f,1909.0732100009918,False,keypress,prescreenRsp_lablap,774,[],choice-response,Lab,620ec53fa0554592d9045bb5,Lab,1706,83,PrescreenTrials
607affb9d112a7e23c03a96d,Group_FJ,0,63fc4b75264600eb92114d26d41b3f1cb008710660fa75110acedf0fc710458f,1909.0732100009918,False,keypress,prescreenRsp_fadfat,696,[],choice-response,Fad,620ec53fa0554592d9045bb5,Fad,1845,84,PrescreenTrials
607affb9d112a7e23c03a96d,Group_FJ,0,63fc4b75264600eb92114d26d41b3f1cb008710660fa75110acedf0fc710458f,1909.0732100009918,False,keypress,prescreenRsp_laglack,608,[],choice-response,Lack,620ec53fa0554592d9045bb5,Lack,1354,85,PrescreenTrials
607affb9d112a7e23c03a96d,Group_FJ,0,63fc4b75264600eb92114d26d41b3f1cb008710660fa75110acedf0fc710458f,1909.0732100009918,False,keypress,prescreenRsp_lablap,569,[],choice-response,Lap,620ec53fa0554592d9045bb5,Lap,1304,86,PrescreenTrials
607affb9d112a7e23c03a96d,Group_FJ,0,63fc4b75264600eb92114d26d41b3f1cb008710660fa75110acedf0fc710458f,1909.0732100009918,False,keypress,prescreenRsp_beadbeat,334,[],choice-response,Bead,620ec53fa0554592d9045bb5,Bead,1309,87,PrescreenTrials
607affb9d112a7e23c03a96d,Group_FJ,0,63fc4b75264600eb92114d26d41b3f1cb008710660fa75110acedf0fc710458f,1909.0732100009918,False,keypress,prescreenRsp_bagback,487,[],choice-response,Back,620ec53fa0554592d9045bb5,Back,1206,88,PrescreenTrials
607affb9d112a7e23c03a96d,Group_FJ,0,63fc4b75264600eb92114d26d41b3f1cb008710660fa75110acedf0fc710458f,1909.0732100009918,False,keypress,prescreenRsp_laglack,592,[],choice-response,Lack,620ec53fa0554592d9045bb5,Lack,1336,89,PrescreenTrials
607affb9d112a7e23c03a96d,Group_FJ,0,63fc4b75264600eb92114d26d41b3f1cb008710660fa75110acedf0fc710458f,1909.0732100009918,False,keypress,prescreenRsp_beadbeat,384,[],choice-response,Bead,620ec53fa0554592d9045bb5,Beat,1145,90,PrescreenTrials
607affb9d112a7e23c03a96d,Group_FJ,0,63fc4b75264600eb92114d26d41b3f1cb008710660fa75110acedf0fc710458f,1909.0732100009918,False,keypress,prescreenRsp_beadbeat,374,[],choice-response,Bead,620ec53fa0554592d9045bb5,Bead,1214,91,PrescreenTrials
607affb9d112a7e23c03a96d,Group_FJ,0,63fc4b75264600eb92114d26d41b3f1cb008710660fa75110acedf0fc710458f,1909.0732100009918,False,keypress,prescreenRsp_lablap,590,[],choice-response,Lap,620ec53fa0554592d9045bb5,Lap,1329,92,PrescreenTrials
607affb9d112a7e23c03a96d,Group_FJ,0,63fc4b75264600eb92114d26d41b3f1cb008710660fa75110acedf0fc710458f,1909.0732100009918,False,keypress,prescreenRsp_cabcap,647,[],choice-response,Cab,620ec53fa0554592d9045bb5,Cab,1580,93,PrescreenTrials
607affb9d112a7e23c03a96d,Group_FJ,0,63fc4b75264600eb92114d26d41b3f1cb008710660fa75110acedf0fc710458f,1909.0732100009918,False,keypress,prescreenRsp_bagback,573,[],choice-response,Bag,620ec53fa0554592d9045bb5,Bag,1490,94,PrescreenTrials
607affb9d112a7e23c03a96d,Group_FJ,0,63fc4b75264600eb92114d26d41b3f1cb008710660fa75110acedf0fc710458f,1909.0732100009918,False,keypress,prescreenRsp_cabcap,793,[],choice-response,Cap,620ec53fa0554592d9045bb5,Cap,1512,95,PrescreenTrials
607affb9d112a7e23c03a96d,Group_FJ,0,63fc4b75264600eb92114d26d41b3f1cb008710660fa75110acedf0fc710458f,1909.0732100009918,False,keypress,prescreenRsp_fadfat,547,[],choice-response,Fad,620ec53fa0554592d9045bb5,Fat,1478,96,PrescreenTrials
607affb9d112a7e23c03a96d,Group_FJ,0,63fc4b75264600eb92114d26d41b3f1cb008710660fa75110acedf0fc710458f,1909.0732100009918,False,keypress,prescreenRsp_lablap,764,[],choice-response,Lab,620ec53fa0554592d9045bb5,Lab,1690,97,PrescreenTrials
607affb9d112a7e23c03a96d,Group_FJ,0,63fc4b75264600eb92114d26d41b3f1cb008710660fa75110acedf0fc710458f,1909.0732100009918,False,keypress,prescreenRsp_laglack,1025,[],choice-response,Lag,620ec53fa0554592d9045bb5,Lag,1994,98,PrescreenTrials
607affb9d112a7e23c03a96d,Group_FJ,0,63fc4b75264600eb92114d26d41b3f1cb008710660fa75110acedf0fc710458f,1909.0732100009918,False,keypress,prescreenRsp_fadfat,492,[],choice-response,Fad,620ec53fa0554592d9045bb5,Fad,1621,99,PrescreenTrials
607affb9d112a7e23c03a96d,Group_FJ,0,63fc4b75264600eb92114d26d41b3f1cb008710660fa75110acedf0fc710458f,1909.0732100009918,False,keypress,prescreenRsp_beadbeat,593,[],choice-response,Bead,620ec53fa0554592d9045bb5,Bead,1584,100,PrescreenTrials
607affb9d112a7e23c03a96d,Group_FJ,0,63fc4b75264600eb92114d26d41b3f1cb008710660fa75110acedf0fc710458f,1909.0732100009918,False,keypress,prescreenRsp_laglack,632,[],choice-response,Lack,620ec53fa0554592d9045bb5,Lack,1382,101,PrescreenTrials
607affb9d112a7e23c03a96d,Group_FJ,0,63fc4b75264600eb92114d26d41b3f1cb008710660fa75110acedf0fc710458f,1909.0732100009918,False,keypress,prescreenRsp_lablap,492,[],choice-response,Lab,620ec53fa0554592d9045bb5,Lab,1422,102,PrescreenTrials
607affb9d112a7e23c03a96d,Group_FJ,0,63fc4b75264600eb92114d26d41b3f1cb008710660fa75110acedf0fc710458f,1909.0732100009918,False,keypress,prescreenRsp_fadfat,443,[],choice-response,Fad,620ec53fa0554592d9045bb5,Fat,1353,103,PrescreenTrials
607affb9d112a7e23c03a96d,Group_FJ,0,63fc4b75264600eb92114d26d41b3f1cb008710660fa75110acedf0fc710458f,1909.0732100009918,False,keypress,prescreenRsp_lablap,762,[],choice-response,Lap,620ec53fa0554592d9045bb5,Lap,1502,104,PrescreenTrials
607affb9d112a7e23c03a96d,Group_FJ,0,63fc4b75264600eb92114d26d41b3f1cb008710660fa75110acedf0fc710458f,1909.0732100009918,False,keypress,prescreenRsp_cabcap,1314,[],choice-response,Cab,620ec53fa0554592d9045bb5,Cab,2255,105,PrescreenTrials
607affb9d112a7e23c03a96d,Group_FJ,0,63fc4b75264600eb92114d26d41b3f1cb008710660fa75110acedf0fc710458f,1909.0732100009918,False,keypress,prescreenRsp_bagback,836,[],choice-response,Back,620ec53fa0554592d9045bb5,Bag,1754,106,PrescreenTrials
607affb9d112a7e23c03a96d,Group_FJ,0,63fc4b75264600eb92114d26d41b3f1cb008710660fa75110acedf0fc710458f,1909.0732100009918,False,keypress,prescreenRsp_cabcap,1250,[],choice-response,Cap,620ec53fa0554592d9045bb5,Cap,1978,107,PrescreenTrials
607affb9d112a7e23c03a96d,Group_FJ,0,63fc4b75264600eb92114d26d41b3f1cb008710660fa75110acedf0fc710458f,1909.0732100009918,False,keypress,prescreenRsp_bagback,639,[],choice-response,Back,620ec53fa0554592d9045bb5,Back,1344,108,PrescreenTrials
607affb9d112a7e23c03a96d,Group_FJ,0,63fc4b75264600eb92114d26d41b3f1cb008710660fa75110acedf0fc710458f,1909.0732100009918,False,keypress,prescreenRsp_beadbeat,1062,[],choice-response,Bead,620ec53fa0554592d9045bb5,Beat,1833,109,PrescreenTrials
607affb9d112a7e23c03a96d,Group_FJ,0,63fc4b75264600eb92114d26d41b3f1cb008710660fa75110acedf0fc710458f,1909.0732100009918,False,keypress,prescreenRsp_fadfat,667,[],choice-response,Fad,620ec53fa0554592d9045bb5,Fad,1799,110,PrescreenTrials
607affb9d112a7e23c03a96d,Group_FJ,0,63fc4b75264600eb92114d26d41b3f1cb008710660fa75110acedf0fc710458f,1909.0732100009918,False,keypress,prescreenRsp_laglack,775,[],choice-response,Lag,620ec53fa0554592d9045bb5,Lag,1741,111,PrescreenTrials
607affb9d112a7e23c03a96d,Group_FJ,0,63fc4b75264600eb92114d26d41b3f1cb008710660fa75110acedf0fc710458f,1909.0732100009918,False,keypress,prescreenRsp_bagback,735,[],choice-response,Back,620ec53fa0554592d9045bb5,Back,1453,112,PrescreenTrials
607affb9d112a7e23c03a96d,Group_FJ,0,63fc4b75264600eb92114d26d41b3f1cb008710660fa75110acedf0fc710458f,1909.0732100009918,False,keypress,prescreenRsp_fadfat,399,[],choice-response,Fad,620ec53fa0554592d9045bb5,Fat,1308,113,PrescreenTrials
607affb9d112a7e23c03a96d,Group_FJ,0,63fc4b75264600eb92114d26d41b3f1cb008710660fa75110acedf0fc710458f,1909.0732100009918,False,keypress,prescreenRsp_lablap,610,[],choice-response,Lap,620ec53fa0554592d9045bb5,Lap,1353,114,PrescreenTrials
607affb9d112a7e23c03a96d,Group_FJ,0,63fc4b75264600eb92114d26d41b3f1cb008710660fa75110acedf0fc710458f,1909.0732100009918,False,keypress,prescreenRsp_beadbeat,401,[],choice-response,Bead,620ec53fa0554592d9045bb5,Beat,1163,115,PrescreenTrials
607affb9d112a7e23c03a96d,Group_FJ,0,63fc4b75264600eb92114d26d41b3f1cb008710660fa75110acedf0fc710458f,1909.0732100009918,False,keypress,prescreenRsp_lablap,564,[],choice-response,Lab,620ec53fa0554592d9045bb5,Lab,1486,116,PrescreenTrials
607affb9d112a7e23c03a96d,Group_FJ,0,63fc4b75264600eb92114d26d41b3f1cb008710660fa75110acedf0fc710458f,1909.0732100009918,False,keypress,prescreenRsp_laglack,545,[],choice-response,Lack,620ec53fa0554592d9045bb5,Lack,1284,117,PrescreenTrials
607affb9d112a7e23c03a96d,Group_FJ,0,63fc4b75264600eb92114d26d41b3f1cb008710660fa75110acedf0fc710458f,1909.0732100009918,False,keypress,prescreenRsp_fadfat,374,[],choice-response,Fad,620ec53fa0554592d9045bb5,Fad,1521,118,PrescreenTrials
607affb9d112a7e23c03a96d,Group_FJ,0,63fc4b75264600eb92114d26d41b3f1cb008710660fa75110acedf0fc710458f,1909.0732100009918,False,keypress,prescreenRsp_cabcap,354,[],choice-response,Cap,620ec53fa0554592d9045bb5,Cab,1293,119,PrescreenTrials
607affb9d112a7e23c03a96d,Group_FJ,0,63fc4b75264600eb92114d26d41b3f1cb008710660fa75110acedf0fc710458f,1909.0732100009918,False,keypress,prescreenRsp_laglack,1208,[],choice-response,Lag,620ec53fa0554592d9045bb5,Lag,2168,120,PrescreenTrials
607affb9d112a7e23c03a96d,Group_FJ,0,63fc4b75264600eb92114d26d41b3f1cb008710660fa75110acedf0fc710458f,1909.0732100009918,False,keypress,prescreenRsp_bagback,500,[],choice-response,Bag,620ec53fa0554592d9045bb5,Bag,1415,121,PrescreenTrials
607affb9d112a7e23c03a96d,Group_FJ,0,63fc4b75264600eb92114d26d41b3f1cb008710660fa75110acedf0fc710458f,1909.0732100009918,False,keypress,prescreenRsp_beadbeat,578,[],choice-response,Bead,620ec53fa0554592d9045bb5,Bead,1580,122,PrescreenTrials
607affb9d112a7e23c03a96d,Group_FJ,0,63fc4b75264600eb92114d26d41b3f1cb008710660fa75110acedf0fc710458f,1909.0732100009918,False,keypress,prescreenRsp_cabcap,1052,[],choice-response,Cap,620ec53fa0554592d9045bb5,Cap,1786,123,PrescreenTrials
607affb9d112a7e23c03a96d,Group_FJ,0,63fc4b75264600eb92114d26d41b3f1cb008710660fa75110acedf0fc710458f,1909.0732100009918,False,keypress,testRsp,2892,[],choice-response,Lab,620ec53fa0554592d9045bb5,Lab2,3694,124,DiscriminationTrials
607affb9d112a7e23c03a96d,Group_FJ,0,63fc4b75264600eb92114d26d41b3f1cb008710660fa75110acedf0fc710458f,1909.0732100009918,False,keypress,testRsp,734,[],choice-response,Lab,620ec53fa0554592d9045bb5,Lab8,1635,125,DiscriminationTrials
607affb9d112a7e23c03a96d,Group_FJ,0,63fc4b75264600eb92114d26d41b3f1cb008710660fa75110acedf0fc710458f,1909.0732100009918,False,keypress,testRsp,489,[],choice-response,Lab,620ec53fa0554592d9045bb5,Lab4,1287,126,DiscriminationTrials
607affb9d112a7e23c03a96d,Group_FJ,0,63fc4b75264600eb92114d26d41b3f1cb008710660fa75110acedf0fc710458f,1909.0732100009918,False,keypress,testRsp,311,[],choice-response,Lab,620ec53fa0554592d9045bb5,Lab7,1165,127,DiscriminationTrials
607affb9d112a7e23c03a96d,Group_FJ,0,63fc4b75264600eb92114d26d41b3f1cb008710660fa75110acedf0fc710458f,1909.0732100009918,False,keypress,testRsp,643,[],choice-response,Lap,620ec53fa0554592d9045bb5,Lab1,1386,128,DiscriminationTrials
607affb9d112a7e23c03a96d,Group_FJ,0,63fc4b75264600eb92114d26d41b3f1cb008710660fa75110acedf0fc710458f,1909.0732100009918,False,keypress,testRsp,579,[],choice-response,Lab,620ec53fa0554592d9045bb5,Lab5,1398,129,DiscriminationTrials
607affb9d112a7e23c03a96d,Group_FJ,0,63fc4b75264600eb92114d26d41b3f1cb008710660fa75110acedf0fc710458f,1909.0732100009918,False,keypress,testRsp,1771,[],choice-response,Lab,620ec53fa0554592d9045bb5,Lab3,2552,130,DiscriminationTrials
607affb9d112a7e23c03a96d,Group_FJ,0,63fc4b75264600eb92114d26d41b3f1cb008710660fa75110acedf0fc710458f,1909.0732100009918,False,keypress,testRsp,628,[],choice-response,Lab,620ec53fa0554592d9045bb5,Lab6,1480,131,DiscriminationTrials
607affb9d112a7e23c03a96d,Group_FJ,0,63fc4b75264600eb92114d26d41b3f1cb008710660fa75110acedf0fc710458f,1909.0732100009918,False,keypress,testRsp,359,[],choice-response,Lab,620ec53fa0554592d9045bb5,Lab7,1083,132,DiscriminationTrials
607affb9d112a7e23c03a96d,Group_FJ,0,63fc4b75264600eb92114d26d41b3f1cb008710660fa75110acedf0fc710458f,1909.0732100009918,False,keypress,testRsp,599,[],choice-response,Lap,620ec53fa0554592d9045bb5,Lab1,1221,133,DiscriminationTrials
607affb9d112a7e23c03a96d,Group_FJ,0,63fc4b75264600eb92114d26d41b3f1cb008710660fa75110acedf0fc710458f,1909.0732100009918,False,keypress,testRsp,418,[],choice-response,Lab,620ec53fa0554592d9045bb5,Lab4,1081,134,DiscriminationTrials
607affb9d112a7e23c03a96d,Group_FJ,0,63fc4b75264600eb92114d26d41b3f1cb008710660fa75110acedf0fc710458f,1909.0732100009918,False,keypress,testRsp,365,[],choice-response,Lab,620ec53fa0554592d9045bb5,Lab5,1072,135,DiscriminationTrials
607affb9d112a7e23c03a96d,Group_FJ,0,63fc4b75264600eb92114d26d41b3f1cb008710660fa75110acedf0fc710458f,1909.0732100009918,False,keypress,testRsp,373,[],choice-response,Lab,620ec53fa0554592d9045bb5,Lab6,1100,136,DiscriminationTrials
607affb9d112a7e23c03a96d,Group_FJ,0,63fc4b75264600eb92114d26d41b3f1cb008710660fa75110acedf0fc710458f,1909.0732100009918,False,keypress,testRsp,591,[],choice-response,Lap,620ec53fa0554592d9045bb5,Lab3,1251,137,DiscriminationTrials
607affb9d112a7e23c03a96d,Group_FJ,0,63fc4b75264600eb92114d26d41b3f1cb008710660fa75110acedf0fc710458f,1909.0732100009918,False,keypress,testRsp,395,[],choice-response,Lab,620ec53fa0554592d9045bb5,Lab2,1156,138,DiscriminationTrials
607affb9d112a7e23c03a96d,Group_FJ,0,63fc4b75264600eb92114d26d41b3f1cb008710660fa75110acedf0fc710458f,1909.0732100009918,False,keypress,testRsp,1228,[],choice-response,Lab,620ec53fa0554592d9045bb5,Lab8,1988,139,DiscriminationTrials
607affb9d112a7e23c03a96d,Group_FJ,0,63fc4b75264600eb92114d26d41b3f1cb008710660fa75110acedf0fc710458f,1909.0732100009918,False,keypress,testRsp,401,[],choice-response,Lab,620ec53fa0554592d9045bb5,Lab7,1125,140,DiscriminationTrials
607affb9d112a7e23c03a96d,Group_FJ,0,63fc4b75264600eb92114d26d41b3f1cb008710660fa75110acedf0fc710458f,1909.0732100009918,False,keypress,testRsp,360,[],choice-response,Lab,620ec53fa0554592d9045bb5,Lab6,1081,141,DiscriminationTrials
607affb9d112a7e23c03a96d,Group_FJ,0,63fc4b75264600eb92114d26d41b3f1cb008710660fa75110acedf0fc710458f,1909.0732100009918,False,keypress,testRsp,1044,[],choice-response,Lab,620ec53fa0554592d9045bb5,Lab8,1807,142,DiscriminationTrials
607affb9d112a7e23c03a96d,Group_FJ,0,63fc4b75264600eb92114d26d41b3f1cb008710660fa75110acedf0fc710458f,1909.0732100009918,False,keypress,testRsp,450,[],choice-response,Lap,620ec53fa0554592d9045bb5,Lab2,1100,143,DiscriminationTrials
607affb9d112a7e23c03a96d,Group_FJ,0,63fc4b75264600eb92114d26d41b3f1cb008710660fa75110acedf0fc710458f,1909.0732100009918,False,keypress,testRsp,2604,[],choice-response,Lap,620ec53fa0554592d9045bb5,Lab4,3266,144,DiscriminationTrials
607affb9d112a7e23c03a96d,Group_FJ,0,63fc4b75264600eb92114d26d41b3f1cb008710660fa75110acedf0fc710458f,1909.0732100009918,False,keypress,testRsp,420,[],choice-response,Lap,620ec53fa0554592d9045bb5,Lab1,1049,145,DiscriminationTrials
607affb9d112a7e23c03a96d,Group_FJ,0,63fc4b75264600eb92114d26d41b3f1cb008710660fa75110acedf0fc710458f,1909.0732100009918,False,keypress,testRsp,343,[],choice-response,Lap,620ec53fa0554592d9045bb5,Lab3,1126,146,DiscriminationTrials
607affb9d112a7e23c03a96d,Group_FJ,0,63fc4b75264600eb92114d26d41b3f1cb008710660fa75110acedf0fc710458f,1909.0732100009918,False,keypress,testRsp,1796,[],choice-response,Lap,620ec53fa0554592d9045bb5,Lab5,2616,147,DiscriminationTrials
607affb9d112a7e23c03a96d,Group_FJ,0,63fc4b75264600eb92114d26d41b3f1cb008710660fa75110acedf0fc710458f,1909.0732100009918,False,keypress,testRsp,2007,[],choice-response,Lab,620ec53fa0554592d9045bb5,Lab5,2714,148,DiscriminationTrials
607affb9d112a7e23c03a96d,Group_FJ,0,63fc4b75264600eb92114d26d41b3f1cb008710660fa75110acedf0fc710458f,1909.0732100009918,False,keypress,testRsp,473,[],choice-response,Lab,620ec53fa0554592d9045bb5,Lab8,1379,149,DiscriminationTrials
607affb9d112a7e23c03a96d,Group_FJ,0,63fc4b75264600eb92114d26d41b3f1cb008710660fa75110acedf0fc710458f,1909.0732100009918,False,keypress,testRsp,694,[],choice-response,Lap,620ec53fa0554592d9045bb5,Lab1,1444,150,DiscriminationTrials
607affb9d112a7e23c03a96d,Group_FJ,0,63fc4b75264600eb92114d26d41b3f1cb008710660fa75110acedf0fc710458f,1909.0732100009918,False,keypress,testRsp,573,[],choice-response,Lab,620ec53fa0554592d9045bb5,Lab7,1422,151,DiscriminationTrials
607affb9d112a7e23c03a96d,Group_FJ,0,63fc4b75264600eb92114d26d41b3f1cb008710660fa75110acedf0fc710458f,1909.0732100009918,False,keypress,testRsp,297,[],choice-response,Lap,620ec53fa0554592d9045bb5,Lab6,1146,152,DiscriminationTrials
607affb9d112a7e23c03a96d,Group_FJ,0,63fc4b75264600eb92114d26d41b3f1cb008710660fa75110acedf0fc710458f,1909.0732100009918,False,keypress,testRsp,899,[],choice-response,Lab,620ec53fa0554592d9045bb5,Lab2,1665,153,DiscriminationTrials
607affb9d112a7e23c03a96d,Group_FJ,0,63fc4b75264600eb92114d26d41b3f1cb008710660fa75110acedf0fc710458f,1909.0732100009918,False,keypress,testRsp,339,[],choice-response,Lab,620ec53fa0554592d9045bb5,Lab4,1134,154,DiscriminationTrials
607affb9d112a7e23c03a96d,Group_FJ,0,63fc4b75264600eb92114d26d41b3f1cb008710660fa75110acedf0fc710458f,1909.0732100009918,False,keypress,testRsp,1248,[],choice-response,Lab,620ec53fa0554592d9045bb5,Lab3,2030,155,DiscriminationTrials
607affb9d112a7e23c03a96d,Group_FJ,0,63fc4b75264600eb92114d26d41b3f1cb008710660fa75110acedf0fc710458f,1909.0732100009918,False,keypress,testRsp,740,[],choice-response,Lab,620ec53fa0554592d9045bb5,Lab4,1405,156,DiscriminationTrials
607affb9d112a7e23c03a96d,Group_FJ,0,63fc4b75264600eb92114d26d41b3f1cb008710660fa75110acedf0fc710458f,1909.0732100009918,False,keypress,testRsp,871,[],choice-response,Lab,620ec53fa0554592d9045bb5,Lab8,1634,157,DiscriminationTrials
607affb9d112a7e23c03a96d,Group_FJ,0,63fc4b75264600eb92114d26d41b3f1cb008710660fa75110acedf0fc710458f,1909.0732100009918,False,keypress,testRsp,882,[],choice-response,Lap,620ec53fa0554592d9045bb5,Lab1,1514,158,DiscriminationTrials
607affb9d112a7e23c03a96d,Group_FJ,0,63fc4b75264600eb92114d26d41b3f1cb008710660fa75110acedf0fc710458f,1909.0732100009918,False,keypress,testRsp,2164,[],choice-response,Lab,620ec53fa0554592d9045bb5,Lab2,2815,159,DiscriminationTrials
607affb9d112a7e23c03a96d,Group_FJ,0,63fc4b75264600eb92114d26d41b3f1cb008710660fa75110acedf0fc710458f,1909.0732100009918,False,keypress,testRsp,763,[],choice-response,Lab,620ec53fa0554592d9045bb5,Lab3,1432,160,DiscriminationTrials
607affb9d112a7e23c03a96d,Group_FJ,0,63fc4b75264600eb92114d26d41b3f1cb008710660fa75110acedf0fc710458f,1909.0732100009918,False,keypress,testRsp,329,[],choice-response,Lab,620ec53fa0554592d9045bb5,Lab7,1048,161,DiscriminationTrials
607affb9d112a7e23c03a96d,Group_FJ,0,63fc4b75264600eb92114d26d41b3f1cb008710660fa75110acedf0fc710458f,1909.0732100009918,False,keypress,testRsp,292,[],choice-response,Lab,620ec53fa0554592d9045bb5,Lab6,1016,162,DiscriminationTrials
607affb9d112a7e23c03a96d,Group_FJ,0,63fc4b75264600eb92114d26d41b3f1cb008710660fa75110acedf0fc710458f,1909.0732100009918,False,keypress,testRsp,586,[],choice-response,Lab,620ec53fa0554592d9045bb5,Lab5,1406,163,DiscriminationTrials
607affb9d112a7e23c03a96d,Group_FJ,0,63fc4b75264600eb92114d26d41b3f1cb008710660fa75110acedf0fc710458f,1909.0732100009918,False,keypress,testRsp,401,[],choice-response,Lab,620ec53fa0554592d9045bb5,Lab5,1109,164,DiscriminationTrials
607affb9d112a7e23c03a96d,Group_FJ,0,63fc4b75264600eb92114d26d41b3f1cb008710660fa75110acedf0fc710458f,1909.0732100009918,False,keypress,testRsp,370,[],choice-response,Lab,620ec53fa0554592d9045bb5,Lab3,1171,165,DiscriminationTrials
607affb9d112a7e23c03a96d,Group_FJ,0,63fc4b75264600eb92114d26d41b3f1cb008710660fa75110acedf0fc710458f,1909.0732100009918,False,keypress,testRsp,329,[],choice-response,Lab,620ec53fa0554592d9045bb5,Lab8,1213,166,DiscriminationTrials
607affb9d112a7e23c03a96d,Group_FJ,0,63fc4b75264600eb92114d26d41b3f1cb008710660fa75110acedf0fc710458f,1909.0732100009918,False,keypress,testRsp,919,[],choice-response,Lap,620ec53fa0554592d9045bb5,Lab1,1676,167,DiscriminationTrials
607affb9d112a7e23c03a96d,Group_FJ,0,63fc4b75264600eb92114d26d41b3f1cb008710660fa75110acedf0fc710458f,1909.0732100009918,False,keypress,testRsp,1107,[],choice-response,Lab,620ec53fa0554592d9045bb5,Lab6,1950,168,DiscriminationTrials
607affb9d112a7e23c03a96d,Group_FJ,0,63fc4b75264600eb92114d26d41b3f1cb008710660fa75110acedf0fc710458f,1909.0732100009918,False,keypress,testRsp,453,[],choice-response,Lap,620ec53fa0554592d9045bb5,Lab4,1250,169,DiscriminationTrials
607affb9d112a7e23c03a96d,Group_FJ,0,63fc4b75264600eb92114d26d41b3f1cb008710660fa75110acedf0fc710458f,1909.0732100009918,False,keypress,testRsp,296,[],choice-response,Lap,620ec53fa0554592d9045bb5,Lab2,1063,170,DiscriminationTrials
607affb9d112a7e23c03a96d,Group_FJ,0,63fc4b75264600eb92114d26d41b3f1cb008710660fa75110acedf0fc710458f,1909.0732100009918,False,keypress,testRsp,484,[],choice-response,Lab,620ec53fa0554592d9045bb5,Lab7,1331,171,DiscriminationTrials
607affb9d112a7e23c03a96d,Group_FJ,0,63fc4b75264600eb92114d26d41b3f1cb008710660fa75110acedf0fc710458f,1909.0732100009918,False,keypress,testRsp,1386,[],choice-response,Lap,620ec53fa0554592d9045bb5,Lab8,2145,172,DiscriminationTrials
607affb9d112a7e23c03a96d,Group_FJ,0,63fc4b75264600eb92114d26d41b3f1cb008710660fa75110acedf0fc710458f,1909.0732100009918,False,keypress,testRsp,302,[],choice-response,Lab,620ec53fa0554592d9045bb5,Lab5,1130,173,DiscriminationTrials
607affb9d112a7e23c03a96d,Group_FJ,0,63fc4b75264600eb92114d26d41b3f1cb008710660fa75110acedf0fc710458f,1909.0732100009918,False,keypress,testRsp,452,[],choice-response,Lap,620ec53fa0554592d9045bb5,Lab2,1093,174,DiscriminationTrials
607affb9d112a7e23c03a96d,Group_FJ,0,63fc4b75264600eb92114d26d41b3f1cb008710660fa75110acedf0fc710458f,1909.0732100009918,False,keypress,testRsp,237,[],choice-response,Lab,620ec53fa0554592d9045bb5,Lab7,957,175,DiscriminationTrials
607affb9d112a7e23c03a96d,Group_FJ,0,63fc4b75264600eb92114d26d41b3f1cb008710660fa75110acedf0fc710458f,1909.0732100009918,False,keypress,testRsp,215,[],choice-response,Lap,620ec53fa0554592d9045bb5,Lab6,941,176,DiscriminationTrials
607affb9d112a7e23c03a96d,Group_FJ,0,63fc4b75264600eb92114d26d41b3f1cb008710660fa75110acedf0fc710458f,1909.0732100009918,False,keypress,testRsp,1290,[],choice-response,Lab,620ec53fa0554592d9045bb5,Lab1,1908,177,DiscriminationTrials
607affb9d112a7e23c03a96d,Group_FJ,0,63fc4b75264600eb92114d26d41b3f1cb008710660fa75110acedf0fc710458f,1909.0732100009918,False,keypress,testRsp,460,[],choice-response,Lab,620ec53fa0554592d9045bb5,Lab3,1243,178,DiscriminationTrials
607affb9d112a7e23c03a96d,Group_FJ,0,63fc4b75264600eb92114d26d41b3f1cb008710660fa75110acedf0fc710458f,1909.0732100009918,False,keypress,testRsp,529,[],choice-response,Lab,620ec53fa0554592d9045bb5,Lab4,1192,179,DiscriminationTrials
607affb9d112a7e23c03a96d,Group_FJ,0,63fc4b75264600eb92114d26d41b3f1cb008710660fa75110acedf0fc710458f,1909.0732100009918,False,keypress,testRsp,353,[],choice-response,Lab,620ec53fa0554592d9045bb5,Lab2,997,180,DiscriminationTrials
607affb9d112a7e23c03a96d,Group_FJ,0,63fc4b75264600eb92114d26d41b3f1cb008710660fa75110acedf0fc710458f,1909.0732100009918,False,keypress,testRsp,351,[],choice-response,Lab,620ec53fa0554592d9045bb5,Lab3,1010,181,DiscriminationTrials
607affb9d112a7e23c03a96d,Group_FJ,0,63fc4b75264600eb92114d26d41b3f1cb008710660fa75110acedf0fc710458f,1909.0732100009918,False,keypress,testRsp,396,[],choice-response,Lab,620ec53fa0554592d9045bb5,Lab4,1059,182,DiscriminationTrials
607affb9d112a7e23c03a96d,Group_FJ,0,63fc4b75264600eb92114d26d41b3f1cb008710660fa75110acedf0fc710458f,1909.0732100009918,False,keypress,testRsp,268,[],choice-response,Lab,620ec53fa0554592d9045bb5,Lab7,995,183,DiscriminationTrials
607affb9d112a7e23c03a96d,Group_FJ,0,63fc4b75264600eb92114d26d41b3f1cb008710660fa75110acedf0fc710458f,1909.0732100009918,False,keypress,testRsp,204,[],choice-response,Lab,620ec53fa0554592d9045bb5,Lab6,928,184,DiscriminationTrials
607affb9d112a7e23c03a96d,Group_FJ,0,63fc4b75264600eb92114d26d41b3f1cb008710660fa75110acedf0fc710458f,1909.0732100009918,False,keypress,testRsp,194,[],choice-response,Lab,620ec53fa0554592d9045bb5,Lab5,894,185,DiscriminationTrials
607affb9d112a7e23c03a96d,Group_FJ,0,63fc4b75264600eb92114d26d41b3f1cb008710660fa75110acedf0fc710458f,1909.0732100009918,False,keypress,testRsp,155,[],choice-response,Lab,620ec53fa0554592d9045bb5,Lab8,924,186,DiscriminationTrials
607affb9d112a7e23c03a96d,Group_FJ,0,63fc4b75264600eb92114d26d41b3f1cb008710660fa75110acedf0fc710458f,1909.0732100009918,False,keypress,testRsp,515,[],choice-response,Lap,620ec53fa0554592d9045bb5,Lab1,1141,187,DiscriminationTrials
607affb9d112a7e23c03a96d,Group_FJ,0,63fc4b75264600eb92114d26d41b3f1cb008710660fa75110acedf0fc710458f,1909.0732100009918,False,keypress,testRsp,1232,[],choice-response,Lab,620ec53fa0554592d9045bb5,Lab8,1991,188,DiscriminationTrials
607affb9d112a7e23c03a96d,Group_FJ,0,63fc4b75264600eb92114d26d41b3f1cb008710660fa75110acedf0fc710458f,1909.0732100009918,False,keypress,testRsp,640,[],choice-response,Lab,620ec53fa0554592d9045bb5,Lab7,1501,189,DiscriminationTrials
607affb9d112a7e23c03a96d,Group_FJ,0,63fc4b75264600eb92114d26d41b3f1cb008710660fa75110acedf0fc710458f,1909.0732100009918,False,keypress,testRsp,472,[],choice-response,Lap,620ec53fa0554592d9045bb5,Lab2,1244,190,DiscriminationTrials
607affb9d112a7e23c03a96d,Group_FJ,0,63fc4b75264600eb92114d26d41b3f1cb008710660fa75110acedf0fc710458f,1909.0732100009918,False,keypress,testRsp,322,[],choice-response,Lap,620ec53fa0554592d9045bb5,Lab5,1162,191,DiscriminationTrials
607affb9d112a7e23c03a96d,Group_FJ,0,63fc4b75264600eb92114d26d41b3f1cb008710660fa75110acedf0fc710458f,1909.0732100009918,False,keypress,testRsp,203,[],choice-response,Lab,620ec53fa0554592d9045bb5,Lab6,1053,192,DiscriminationTrials
607affb9d112a7e23c03a96d,Group_FJ,0,63fc4b75264600eb92114d26d41b3f1cb008710660fa75110acedf0fc710458f,1909.0732100009918,False,keypress,testRsp,842,[],choice-response,Lap,620ec53fa0554592d9045bb5,Lab3,1632,193,DiscriminationTrials
607affb9d112a7e23c03a96d,Group_FJ,0,63fc4b75264600eb92114d26d41b3f1cb008710660fa75110acedf0fc710458f,1909.0732100009918,False,keypress,testRsp,985,[],choice-response,Lap,620ec53fa0554592d9045bb5,Lab4,1776,194,DiscriminationTrials
607affb9d112a7e23c03a96d,Group_FJ,0,63fc4b75264600eb92114d26d41b3f1cb008710660fa75110acedf0fc710458f,1909.0732100009918,False,keypress,testRsp,1209,[],choice-response,Lab,620ec53fa0554592d9045bb5,Lab1,1956,195,DiscriminationTrials
607affb9d112a7e23c03a96d,Group_FJ,0,63fc4b75264600eb92114d26d41b3f1cb008710660fa75110acedf0fc710458f,1909.0732100009918,False,keypress,testRsp,609,[],choice-response,Lap,620ec53fa0554592d9045bb5,Lab2,1253,196,DiscriminationTrials
607affb9d112a7e23c03a96d,Group_FJ,0,63fc4b75264600eb92114d26d41b3f1cb008710660fa75110acedf0fc710458f,1909.0732100009918,False,keypress,testRsp,271,[],choice-response,Lap,620ec53fa0554592d9045bb5,Lab1,896,197,DiscriminationTrials
607affb9d112a7e23c03a96d,Group_FJ,0,63fc4b75264600eb92114d26d41b3f1cb008710660fa75110acedf0fc710458f,1909.0732100009918,False,keypress,testRsp,242,[],choice-response,Lap,620ec53fa0554592d9045bb5,Lab3,902,198,DiscriminationTrials
607affb9d112a7e23c03a96d,Group_FJ,0,63fc4b75264600eb92114d26d41b3f1cb008710660fa75110acedf0fc710458f,1909.0732100009918,False,keypress,testRsp,256,[],choice-response,Lap,620ec53fa0554592d9045bb5,Lab5,958,199,DiscriminationTrials
607affb9d112a7e23c03a96d,Group_FJ,0,63fc4b75264600eb92114d26d41b3f1cb008710660fa75110acedf0fc710458f,1909.0732100009918,False,keypress,testRsp,882,[],choice-response,Lap,620ec53fa0554592d9045bb5,Lab8,1649,200,DiscriminationTrials
607affb9d112a7e23c03a96d,Group_FJ,0,63fc4b75264600eb92114d26d41b3f1cb008710660fa75110acedf0fc710458f,1909.0732100009918,False,keypress,testRsp,375,[],choice-response,Lab,620ec53fa0554592d9045bb5,Lab4,1046,201,DiscriminationTrials
607affb9d112a7e23c03a96d,Group_FJ,0,63fc4b75264600eb92114d26d41b3f1cb008710660fa75110acedf0fc710458f,1909.0732100009918,False,keypress,testRsp,250,[],choice-response,Lab,620ec53fa0554592d9045bb5,Lab6,977,202,DiscriminationTrials
607affb9d112a7e23c03a96d,Group_FJ,0,63fc4b75264600eb92114d26d41b3f1cb008710660fa75110acedf0fc710458f,1909.0732100009918,False,keypress,testRsp,259,[],choice-response,Lab,620ec53fa0554592d9045bb5,Lab7,983,203,DiscriminationTrials
607affb9d112a7e23c03a96d,Group_FJ,0,63fc4b75264600eb92114d26d41b3f1cb008710660fa75110acedf0fc710458f,1909.0732100009918,False,keypress,testRsp,712,[],choice-response,Lab,620ec53fa0554592d9045bb5,Lab8,1476,204,DiscriminationTrials
607affb9d112a7e23c03a96d,Group_FJ,0,63fc4b75264600eb92114d26d41b3f1cb008710660fa75110acedf0fc710458f,1909.0732100009918,False,keypress,testRsp,288,[],choice-response,Lab,620ec53fa0554592d9045bb5,Lab7,1010,205,DiscriminationTrials
607affb9d112a7e23c03a96d,Group_FJ,0,63fc4b75264600eb92114d26d41b3f1cb008710660fa75110acedf0fc710458f,1909.0732100009918,False,keypress,testRsp,248,[],choice-response,Lab,620ec53fa0554592d9045bb5,Lab4,911,206,DiscriminationTrials
607affb9d112a7e23c03a96d,Group_FJ,0,63fc4b75264600eb92114d26d41b3f1cb008710660fa75110acedf0fc710458f,1909.0732100009918,False,keypress,testRsp,282,[],choice-response,Lab,620ec53fa0554592d9045bb5,Lab6,1007,207,DiscriminationTrials
607affb9d112a7e23c03a96d,Group_FJ,0,63fc4b75264600eb92114d26d41b3f1cb008710660fa75110acedf0fc710458f,1909.0732100009918,False,keypress,testRsp,302,[],choice-response,Lab,620ec53fa0554592d9045bb5,Lab5,1003,208,DiscriminationTrials
607affb9d112a7e23c03a96d,Group_FJ,0,63fc4b75264600eb92114d26d41b3f1cb008710660fa75110acedf0fc710458f,1909.0732100009918,False,keypress,testRsp,331,[],choice-response,Lab,620ec53fa0554592d9045bb5,Lab1,953,209,DiscriminationTrials
607affb9d112a7e23c03a96d,Group_FJ,0,63fc4b75264600eb92114d26d41b3f1cb008710660fa75110acedf0fc710458f,1909.0732100009918,False,keypress,testRsp,517,[],choice-response,Lap,620ec53fa0554592d9045bb5,Lab2,1168,210,DiscriminationTrials
607affb9d112a7e23c03a96d,Group_FJ,0,63fc4b75264600eb92114d26d41b3f1cb008710660fa75110acedf0fc710458f,1909.0732100009918,False,keypress,testRsp,281,[],choice-response,Lap,620ec53fa0554592d9045bb5,Lab3,947,211,DiscriminationTrials
607affb9d112a7e23c03a96d,Group_FJ,0,63fc4b75264600eb92114d26d41b3f1cb008710660fa75110acedf0fc710458f,1909.0732100009918,False,keypress,testRsp,455,[],choice-response,Lab,620ec53fa0554592d9045bb5,Lab7,1178,212,DiscriminationTrials
607affb9d112a7e23c03a96d,Group_FJ,0,63fc4b75264600eb92114d26d41b3f1cb008710660fa75110acedf0fc710458f,1909.0732100009918,False,keypress,testRsp,243,[],choice-response,Lab,620ec53fa0554592d9045bb5,Lab8,1149,213,DiscriminationTrials
607affb9d112a7e23c03a96d,Group_FJ,0,63fc4b75264600eb92114d26d41b3f1cb008710660fa75110acedf0fc710458f,1909.0732100009918,False,keypress,testRsp,238,[],choice-response,Lab,620ec53fa0554592d9045bb5,Lab5,1059,214,DiscriminationTrials
607affb9d112a7e23c03a96d,Group_FJ,0,63fc4b75264600eb92114d26d41b3f1cb008710660fa75110acedf0fc710458f,1909.0732100009918,False,keypress,testRsp,207,[],choice-response,Lab,620ec53fa0554592d9045bb5,Lab3,1002,215,DiscriminationTrials
607affb9d112a7e23c03a96d,Group_FJ,0,63fc4b75264600eb92114d26d41b3f1cb008710660fa75110acedf0fc710458f,1909.0732100009918,False,keypress,testRsp,292,[],choice-response,Lab,620ec53fa0554592d9045bb5,Lab1,1030,216,DiscriminationTrials
607affb9d112a7e23c03a96d,Group_FJ,0,63fc4b75264600eb92114d26d41b3f1cb008710660fa75110acedf0fc710458f,1909.0732100009918,False,keypress,testRsp,292,[],choice-response,Lab,620ec53fa0554592d9045bb5,Lab4,1081,217,DiscriminationTrials
607affb9d112a7e23c03a96d,Group_FJ,0,63fc4b75264600eb92114d26d41b3f1cb008710660fa75110acedf0fc710458f,1909.0732100009918,False,keypress,testRsp,348,[],choice-response,Lab,620ec53fa0554592d9045bb5,Lab2,1121,218,DiscriminationTrials
607affb9d112a7e23c03a96d,Group_FJ,0,63fc4b75264600eb92114d26d41b3f1cb008710660fa75110acedf0fc710458f,1909.0732100009918,False,keypress,testRsp,359,[],choice-response,Lab,620ec53fa0554592d9045bb5,Lab6,1203,219,DiscriminationTrials
607affb9d112a7e23c03a96d,Group_FJ,0,63fc4b75264600eb92114d26d41b3f1cb008710660fa75110acedf0fc710458f,1909.0732100009918,False,keypress,testRsp,908,[],choice-response,Lab,620ec53fa0554592d9045bb5,Lab4,1573,220,DiscriminationTrials
607affb9d112a7e23c03a96d,Group_FJ,0,63fc4b75264600eb92114d26d41b3f1cb008710660fa75110acedf0fc710458f,1909.0732100009918,False,keypress,testRsp,315,[],choice-response,Lab,620ec53fa0554592d9045bb5,Lab5,1019,221,DiscriminationTrials
607affb9d112a7e23c03a96d,Group_FJ,0,63fc4b75264600eb92114d26d41b3f1cb008710660fa75110acedf0fc710458f,1909.0732100009918,False,keypress,testRsp,289,[],choice-response,Lab,620ec53fa0554592d9045bb5,Lab3,947,222,DiscriminationTrials
607affb9d112a7e23c03a96d,Group_FJ,0,63fc4b75264600eb92114d26d41b3f1cb008710660fa75110acedf0fc710458f,1909.0732100009918,False,keypress,testRsp,300,[],choice-response,Lab,620ec53fa0554592d9045bb5,Lab7,1164,223,DiscriminationTrials
607affb9d112a7e23c03a96d,Group_FJ,0,63fc4b75264600eb92114d26d41b3f1cb008710660fa75110acedf0fc710458f,1909.0732100009918,False,keypress,testRsp,334,[],choice-response,Lab,620ec53fa0554592d9045bb5,Lab1,958,224,DiscriminationTrials
607affb9d112a7e23c03a96d,Group_FJ,0,63fc4b75264600eb92114d26d41b3f1cb008710660fa75110acedf0fc710458f,1909.0732100009918,False,keypress,testRsp,366,[],choice-response,Lab,620ec53fa0554592d9045bb5,Lab8,1135,225,DiscriminationTrials
607affb9d112a7e23c03a96d,Group_FJ,0,63fc4b75264600eb92114d26d41b3f1cb008710660fa75110acedf0fc710458f,1909.0732100009918,False,keypress,testRsp,435,[],choice-response,Lab,620ec53fa0554592d9045bb5,Lab2,1081,226,DiscriminationTrials
607affb9d112a7e23c03a96d,Group_FJ,0,63fc4b75264600eb92114d26d41b3f1cb008710660fa75110acedf0fc710458f,1909.0732100009918,False,keypress,testRsp,311,[],choice-response,Lab,620ec53fa0554592d9045bb5,Lab6,1028,227,DiscriminationTrials
607affb9d112a7e23c03a96d,Group_FJ,0,63fc4b75264600eb92114d26d41b3f1cb008710660fa75110acedf0fc710458f,1909.0732100009918,False,keypress,testRsp,357,[],choice-response,Lab,620ec53fa0554592d9045bb5,Lab1,979,228,DiscriminationTrials
607affb9d112a7e23c03a96d,Group_FJ,0,63fc4b75264600eb92114d26d41b3f1cb008710660fa75110acedf0fc710458f,1909.0732100009918,False,keypress,testRsp,327,[],choice-response,Lab,620ec53fa0554592d9045bb5,Lab3,993,229,DiscriminationTrials
607affb9d112a7e23c03a96d,Group_FJ,0,63fc4b75264600eb92114d26d41b3f1cb008710660fa75110acedf0fc710458f,1909.0732100009918,False,keypress,testRsp,339,[],choice-response,Lab,620ec53fa0554592d9045bb5,Lab6,1065,230,DiscriminationTrials
607affb9d112a7e23c03a96d,Group_FJ,0,63fc4b75264600eb92114d26d41b3f1cb008710660fa75110acedf0fc710458f,1909.0732100009918,False,keypress,testRsp,570,[],choice-response,Lab,620ec53fa0554592d9045bb5,Lab4,1233,231,DiscriminationTrials
607affb9d112a7e23c03a96d,Group_FJ,0,63fc4b75264600eb92114d26d41b3f1cb008710660fa75110acedf0fc710458f,1909.0732100009918,False,keypress,testRsp,258,[],choice-response,Lab,620ec53fa0554592d9045bb5,Lab2,902,232,DiscriminationTrials
607affb9d112a7e23c03a96d,Group_FJ,0,63fc4b75264600eb92114d26d41b3f1cb008710660fa75110acedf0fc710458f,1909.0732100009918,False,keypress,testRsp,220,[],choice-response,Lab,620ec53fa0554592d9045bb5,Lab5,925,233,DiscriminationTrials
607affb9d112a7e23c03a96d,Group_FJ,0,63fc4b75264600eb92114d26d41b3f1cb008710660fa75110acedf0fc710458f,1909.0732100009918,False,keypress,testRsp,393,[],choice-response,Lab,620ec53fa0554592d9045bb5,Lab7,1115,234,DiscriminationTrials
607affb9d112a7e23c03a96d,Group_FJ,0,63fc4b75264600eb92114d26d41b3f1cb008710660fa75110acedf0fc710458f,1909.0732100009918,False,keypress,testRsp,270,[],choice-response,Lab,620ec53fa0554592d9045bb5,Lab8,1029,235,DiscriminationTrials
607affb9d112a7e23c03a96d,Group_FJ,0,63fc4b75264600eb92114d26d41b3f1cb008710660fa75110acedf0fc710458f,1909.0732100009918,False,keypress,testRsp,686,[],choice-response,Lab,620ec53fa0554592d9045bb5,Lab5,1388,236,DiscriminationTrials
607affb9d112a7e23c03a96d,Group_FJ,0,63fc4b75264600eb92114d26d41b3f1cb008710660fa75110acedf0fc710458f,1909.0732100009918,False,keypress,testRsp,307,[],choice-response,Lab,620ec53fa0554592d9045bb5,Lab6,1025,237,DiscriminationTrials
607affb9d112a7e23c03a96d,Group_FJ,0,63fc4b75264600eb92114d26d41b3f1cb008710660fa75110acedf0fc710458f,1909.0732100009918,False,keypress,testRsp,274,[],choice-response,Lab,620ec53fa0554592d9045bb5,Lab2,919,238,DiscriminationTrials
607affb9d112a7e23c03a96d,Group_FJ,0,63fc4b75264600eb92114d26d41b3f1cb008710660fa75110acedf0fc710458f,1909.0732100009918,False,keypress,testRsp,410,[],choice-response,Lab,620ec53fa0554592d9045bb5,Lab4,1069,239,DiscriminationTrials
607affb9d112a7e23c03a96d,Group_FJ,0,63fc4b75264600eb92114d26d41b3f1cb008710660fa75110acedf0fc710458f,1909.0732100009918,False,keypress,testRsp,2321,[],choice-response,Lap,620ec53fa0554592d9045bb5,Lab7,3044,240,DiscriminationTrials
607affb9d112a7e23c03a96d,Group_FJ,0,63fc4b75264600eb92114d26d41b3f1cb008710660fa75110acedf0fc710458f,1909.0732100009918,False,keypress,testRsp,654,[],choice-response,Lap,620ec53fa0554592d9045bb5,Lab1,1406,241,DiscriminationTrials
607affb9d112a7e23c03a96d,Group_FJ,0,63fc4b75264600eb92114d26d41b3f1cb008710660fa75110acedf0fc710458f,1909.0732100009918,False,keypress,testRsp,390,[],choice-response,Lab,620ec53fa0554592d9045bb5,Lab8,1288,242,DiscriminationTrials
607affb9d112a7e23c03a96d,Group_FJ,0,63fc4b75264600eb92114d26d41b3f1cb008710660fa75110acedf0fc710458f,1909.0732100009918,False,keypress,testRsp,313,[],choice-response,Lab,620ec53fa0554592d9045bb5,Lab3,1097,243,DiscriminationTrials
607affb9d112a7e23c03a96d,Group_FJ,0,63fc4b75264600eb92114d26d41b3f1cb008710660fa75110acedf0fc710458f,1909.0732100009918,False,keypress,testRsp,256,[],choice-response,Lab,620ec53fa0554592d9045bb5,Lab8,1025,244,DiscriminationTrials
607affb9d112a7e23c03a96d,Group_FJ,0,63fc4b75264600eb92114d26d41b3f1cb008710660fa75110acedf0fc710458f,1909.0732100009918,False,keypress,testRsp,302,[],choice-response,Lab,620ec53fa0554592d9045bb5,Lab6,1149,245,DiscriminationTrials
607affb9d112a7e23c03a96d,Group_FJ,0,63fc4b75264600eb92114d26d41b3f1cb008710660fa75110acedf0fc710458f,1909.0732100009918,False,keypress,testRsp,284,[],choice-response,Lab,620ec53fa0554592d9045bb5,Lab7,1145,246,DiscriminationTrials
607affb9d112a7e23c03a96d,Group_FJ,0,63fc4b75264600eb92114d26d41b3f1cb008710660fa75110acedf0fc710458f,1909.0732100009918,False,keypress,testRsp,826,[],choice-response,Lap,620ec53fa0554592d9045bb5,Lab1,1566,247,DiscriminationTrials
607affb9d112a7e23c03a96d,Group_FJ,0,63fc4b75264600eb92114d26d41b3f1cb008710660fa75110acedf0fc710458f,1909.0732100009918,False,keypress,testRsp,391,[],choice-response,Lap,620ec53fa0554592d9045bb5,Lab3,1057,248,DiscriminationTrials
607affb9d112a7e23c03a96d,Group_FJ,0,63fc4b75264600eb92114d26d41b3f1cb008710660fa75110acedf0fc710458f,1909.0732100009918,False,keypress,testRsp,522,[],choice-response,Lab,620ec53fa0554592d9045bb5,Lab4,1304,249,DiscriminationTrials
607affb9d112a7e23c03a96d,Group_FJ,0,63fc4b75264600eb92114d26d41b3f1cb008710660fa75110acedf0fc710458f,1909.0732100009918,False,keypress,testRsp,547,[],choice-response,Lab,620ec53fa0554592d9045bb5,Lab2,1307,250,DiscriminationTrials
607affb9d112a7e23c03a96d,Group_FJ,0,63fc4b75264600eb92114d26d41b3f1cb008710660fa75110acedf0fc710458f,1909.0732100009918,False,keypress,testRsp,223,[],choice-response,Lab,620ec53fa0554592d9045bb5,Lab5,1051,251,DiscriminationTrials
607affb9d112a7e23c03a96d,Group_FJ,0,63fc4b75264600eb92114d26d41b3f1cb008710660fa75110acedf0fc710458f,1909.0732100009918,False,keypress,testRsp,864,[],choice-response,Lab,620ec53fa0554592d9045bb5,Lab4,1522,252,DiscriminationTrials
607affb9d112a7e23c03a96d,Group_FJ,0,63fc4b75264600eb92114d26d41b3f1cb008710660fa75110acedf0fc710458f,1909.0732100009918,False,keypress,testRsp,489,[],choice-response,Lab,620ec53fa0554592d9045bb5,Lab8,1258,253,DiscriminationTrials
607affb9d112a7e23c03a96d,Group_FJ,0,63fc4b75264600eb92114d26d41b3f1cb008710660fa75110acedf0fc710458f,1909.0732100009918,False,keypress,testRsp,298,[],choice-response,Lab,620ec53fa0554592d9045bb5,Lab3,963,254,DiscriminationTrials
607affb9d112a7e23c03a96d,Group_FJ,0,63fc4b75264600eb92114d26d41b3f1cb008710660fa75110acedf0fc710458f,1909.0732100009918,False,keypress,testRsp,246,[],choice-response,Lab,620ec53fa0554592d9045bb5,Lab7,971,255,DiscriminationTrials
607affb9d112a7e23c03a96d,Group_FJ,0,63fc4b75264600eb92114d26d41b3f1cb008710660fa75110acedf0fc710458f,1909.0732100009918,False,keypress,testRsp,677,[],choice-response,Lap,620ec53fa0554592d9045bb5,Lab1,1304,256,DiscriminationTrials
607affb9d112a7e23c03a96d,Group_FJ,0,63fc4b75264600eb92114d26d41b3f1cb008710660fa75110acedf0fc710458f,1909.0732100009918,False,keypress,testRsp,512,[],choice-response,Lab,620ec53fa0554592d9045bb5,Lab6,1237,257,DiscriminationTrials
607affb9d112a7e23c03a96d,Group_FJ,0,63fc4b75264600eb92114d26d41b3f1cb008710660fa75110acedf0fc710458f,1909.0732100009918,False,keypress,testRsp,316,[],choice-response,Lab,620ec53fa0554592d9045bb5,Lab5,1018,258,DiscriminationTrials
607affb9d112a7e23c03a96d,Group_FJ,0,63fc4b75264600eb92114d26d41b3f1cb008710660fa75110acedf0fc710458f,1909.0732100009918,False,keypress,testRsp,239,[],choice-response,Lab,620ec53fa0554592d9045bb5,Lab2,887,259,DiscriminationTrials
607affb9d112a7e23c03a96d,Group_FJ,0,63fc4b75264600eb92114d26d41b3f1cb008710660fa75110acedf0fc710458f,1909.0732100009918,False,keypress,testRsp,404,[],choice-response,Lab,620ec53fa0554592d9045bb5,Lab6,1126,260,DiscriminationTrials
607affb9d112a7e23c03a96d,Group_FJ,0,63fc4b75264600eb92114d26d41b3f1cb008710660fa75110acedf0fc710458f,1909.0732100009918,False,keypress,testRsp,311,[],choice-response,Lab,620ec53fa0554592d9045bb5,Lab7,1028,261,DiscriminationTrials
607affb9d112a7e23c03a96d,Group_FJ,0,63fc4b75264600eb92114d26d41b3f1cb008710660fa75110acedf0fc710458f,1909.0732100009918,False,keypress,testRsp,817,[],choice-response,Lap,620ec53fa0554592d9045bb5,Lab4,1479,262,DiscriminationTrials
607affb9d112a7e23c03a96d,Group_FJ,0,63fc4b75264600eb92114d26d41b3f1cb008710660fa75110acedf0fc710458f,1909.0732100009918,False,keypress,testRsp,543,[],choice-response,Lap,620ec53fa0554592d9045bb5,Lab2,1189,263,DiscriminationTrials
607affb9d112a7e23c03a96d,Group_FJ,0,63fc4b75264600eb92114d26d41b3f1cb008710660fa75110acedf0fc710458f,1909.0732100009918,False,keypress,testRsp,416,[],choice-response,Lab,620ec53fa0554592d9045bb5,Lab5,1117,264,DiscriminationTrials
607affb9d112a7e23c03a96d,Group_FJ,0,63fc4b75264600eb92114d26d41b3f1cb008710660fa75110acedf0fc710458f,1909.0732100009918,False,keypress,testRsp,174,[],choice-response,Lab,620ec53fa0554592d9045bb5,Lab8,940,265,DiscriminationTrials
607affb9d112a7e23c03a96d,Group_FJ,0,63fc4b75264600eb92114d26d41b3f1cb008710660fa75110acedf0fc710458f,1909.0732100009918,False,keypress,testRsp,514,[],choice-response,Lap,620ec53fa0554592d9045bb5,Lab3,1313,266,DiscriminationTrials
607affb9d112a7e23c03a96d,Group_FJ,0,63fc4b75264600eb92114d26d41b3f1cb008710660fa75110acedf0fc710458f,1909.0732100009918,False,keypress,testRsp,488,[],choice-response,Lap,620ec53fa0554592d9045bb5,Lab1,1236,267,DiscriminationTrials
607affb9d112a7e23c03a96d,Group_FJ,0,63fc4b75264600eb92114d26d41b3f1cb008710660fa75110acedf0fc710458f,1909.0732100009918,False,keypress,testRsp,170,[],choice-response,Lab,620ec53fa0554592d9045bb5,Lab6,1017,268,DiscriminationTrials
607affb9d112a7e23c03a96d,Group_FJ,0,63fc4b75264600eb92114d26d41b3f1cb008710660fa75110acedf0fc710458f,1909.0732100009918,False,keypress,testRsp,231,[],choice-response,Lab,620ec53fa0554592d9045bb5,Lab2,992,269,DiscriminationTrials
607affb9d112a7e23c03a96d,Group_FJ,0,63fc4b75264600eb92114d26d41b3f1cb008710660fa75110acedf0fc710458f,1909.0732100009918,False,keypress,testRsp,253,[],choice-response,Lab,620ec53fa0554592d9045bb5,Lab8,1014,270,DiscriminationTrials
607affb9d112a7e23c03a96d,Group_FJ,0,63fc4b75264600eb92114d26d41b3f1cb008710660fa75110acedf0fc710458f,1909.0732100009918,False,keypress,testRsp,290,[],choice-response,Lab,620ec53fa0554592d9045bb5,Lab7,1140,271,DiscriminationTrials
607affb9d112a7e23c03a96d,Group_FJ,0,63fc4b75264600eb92114d26d41b3f1cb008710660fa75110acedf0fc710458f,1909.0732100009918,False,keypress,testRsp,336,[],choice-response,Lab,620ec53fa0554592d9045bb5,Lab5,1170,272,DiscriminationTrials
607affb9d112a7e23c03a96d,Group_FJ,0,63fc4b75264600eb92114d26d41b3f1cb008710660fa75110acedf0fc710458f,1909.0732100009918,False,keypress,testRsp,327,[],choice-response,Lab,620ec53fa0554592d9045bb5,Lab1,953,273,DiscriminationTrials
607affb9d112a7e23c03a96d,Group_FJ,0,63fc4b75264600eb92114d26d41b3f1cb008710660fa75110acedf0fc710458f,1909.0732100009918,False,keypress,testRsp,275,[],choice-response,Lab,620ec53fa0554592d9045bb5,Lab4,1072,274,DiscriminationTrials
607affb9d112a7e23c03a96d,Group_FJ,0,63fc4b75264600eb92114d26d41b3f1cb008710660fa75110acedf0fc710458f,1909.0732100009918,False,keypress,testRsp,249,[],choice-response,Lab,620ec53fa0554592d9045bb5,Lab3,915,275,DiscriminationTrials
607affb9d112a7e23c03a96d,Group_FJ,0,63fc4b75264600eb92114d26d41b3f1cb008710660fa75110acedf0fc710458f,1909.0732100009918,False,keypress,testRsp,217,[],choice-response,Lab,620ec53fa0554592d9045bb5,Lab2,863,276,DiscriminationTrials
607affb9d112a7e23c03a96d,Group_FJ,0,63fc4b75264600eb92114d26d41b3f1cb008710660fa75110acedf0fc710458f,1909.0732100009918,False,keypress,testRsp,222,[],choice-response,Lab,620ec53fa0554592d9045bb5,Lab7,947,277,DiscriminationTrials
607affb9d112a7e23c03a96d,Group_FJ,0,63fc4b75264600eb92114d26d41b3f1cb008710660fa75110acedf0fc710458f,1909.0732100009918,False,keypress,testRsp,228,[],choice-response,Lab,620ec53fa0554592d9045bb5,Lab8,986,278,DiscriminationTrials
607affb9d112a7e23c03a96d,Group_FJ,0,63fc4b75264600eb92114d26d41b3f1cb008710660fa75110acedf0fc710458f,1909.0732100009918,False,keypress,testRsp,480,[],choice-response,Lab,620ec53fa0554592d9045bb5,Lab6,1205,279,DiscriminationTrials
607affb9d112a7e23c03a96d,Group_FJ,0,63fc4b75264600eb92114d26d41b3f1cb008710660fa75110acedf0fc710458f,1909.0732100009918,False,keypress,testRsp,33,[],choice-response,Lab,620ec53fa0554592d9045bb5,Lab3,696,280,DiscriminationTrials
607affb9d112a7e23c03a96d,Group_FJ,0,63fc4b75264600eb92114d26d41b3f1cb008710660fa75110acedf0fc710458f,1909.0732100009918,False,keypress,testRsp,213,[],choice-response,Lab,620ec53fa0554592d9045bb5,Lab1,833,281,DiscriminationTrials
607affb9d112a7e23c03a96d,Group_FJ,0,63fc4b75264600eb92114d26d41b3f1cb008710660fa75110acedf0fc710458f,1909.0732100009918,False,keypress,testRsp,421,[],choice-response,Lab,620ec53fa0554592d9045bb5,Lab4,1080,282,DiscriminationTrials
607affb9d112a7e23c03a96d,Group_FJ,0,63fc4b75264600eb92114d26d41b3f1cb008710660fa75110acedf0fc710458f,1909.0732100009918,False,keypress,testRsp,213,[],choice-response,Lab,620ec53fa0554592d9045bb5,Lab5,915,283,DiscriminationTrials
607affb9d112a7e23c03a96d,Group_FJ,0,63fc4b75264600eb92114d26d41b3f1cb008710660fa75110acedf0fc710458f,1909.0732100009918,False,keypress,testRsp,358,[],choice-response,Lab,620ec53fa0554592d9045bb5,Lab4,1015,284,DiscriminationTrials
607affb9d112a7e23c03a96d,Group_FJ,0,63fc4b75264600eb92114d26d41b3f1cb008710660fa75110acedf0fc710458f,1909.0732100009918,False,keypress,testRsp,315,[],choice-response,Lab,620ec53fa0554592d9045bb5,Lab1,942,285,DiscriminationTrials
607affb9d112a7e23c03a96d,Group_FJ,0,63fc4b75264600eb92114d26d41b3f1cb008710660fa75110acedf0fc710458f,1909.0732100009918,False,keypress,testRsp,199,[],choice-response,Lab,620ec53fa0554592d9045bb5,Lab7,925,286,DiscriminationTrials
607affb9d112a7e23c03a96d,Group_FJ,0,63fc4b75264600eb92114d26d41b3f1cb008710660fa75110acedf0fc710458f,1909.0732100009918,False,keypress,testRsp,280,[],choice-response,Lab,620ec53fa0554592d9045bb5,Lab3,942,287,DiscriminationTrials
607affb9d112a7e23c03a96d,Group_FJ,0,63fc4b75264600eb92114d26d41b3f1cb008710660fa75110acedf0fc710458f,1909.0732100009918,False,keypress,testRsp,184,[],choice-response,Lab,620ec53fa0554592d9045bb5,Lab8,948,288,DiscriminationTrials
607affb9d112a7e23c03a96d,Group_FJ,0,63fc4b75264600eb92114d26d41b3f1cb008710660fa75110acedf0fc710458f,1909.0732100009918,False,keypress,testRsp,251,[],choice-response,Lab,620ec53fa0554592d9045bb5,Lab2,890,289,DiscriminationTrials
607affb9d112a7e23c03a96d,Group_FJ,0,63fc4b75264600eb92114d26d41b3f1cb008710660fa75110acedf0fc710458f,1909.0732100009918,False,keypress,testRsp,269,[],choice-response,Lab,620ec53fa0554592d9045bb5,Lab5,969,290,DiscriminationTrials
607affb9d112a7e23c03a96d,Group_FJ,0,63fc4b75264600eb92114d26d41b3f1cb008710660fa75110acedf0fc710458f,1909.0732100009918,False,keypress,testRsp,166,[],choice-response,Lab,620ec53fa0554592d9045bb5,Lab6,889,291,DiscriminationTrials
607affb9d112a7e23c03a96d,Group_FJ,0,63fc4b75264600eb92114d26d41b3f1cb008710660fa75110acedf0fc710458f,1909.0732100009918,False,keypress,testRsp,186,[],choice-response,Lab,620ec53fa0554592d9045bb5,Lab4,852,292,DiscriminationTrials
607affb9d112a7e23c03a96d,Group_FJ,0,63fc4b75264600eb92114d26d41b3f1cb008710660fa75110acedf0fc710458f,1909.0732100009918,False,keypress,testRsp,169,[],choice-response,Lab,620ec53fa0554592d9045bb5,Lab5,877,293,DiscriminationTrials
607affb9d112a7e23c03a96d,Group_FJ,0,63fc4b75264600eb92114d26d41b3f1cb008710660fa75110acedf0fc710458f,1909.0732100009918,False,keypress,testRsp,134,[],choice-response,Lab,620ec53fa0554592d9045bb5,Lab7,858,294,DiscriminationTrials
607affb9d112a7e23c03a96d,Group_FJ,0,63fc4b75264600eb92114d26d41b3f1cb008710660fa75110acedf0fc710458f,1909.0732100009918,False,keypress,testRsp,158,[],choice-response,Lab,620ec53fa0554592d9045bb5,Lab2,794,295,DiscriminationTrials
607affb9d112a7e23c03a96d,Group_FJ,0,63fc4b75264600eb92114d26d41b3f1cb008710660fa75110acedf0fc710458f,1909.0732100009918,False,keypress,testRsp,761,[],choice-response,Lab,620ec53fa0554592d9045bb5,Lab8,1668,296,DiscriminationTrials
607affb9d112a7e23c03a96d,Group_FJ,0,63fc4b75264600eb92114d26d41b3f1cb008710660fa75110acedf0fc710458f,1909.0732100009918,False,keypress,testRsp,158,[],choice-response,Lab,620ec53fa0554592d9045bb5,Lab3,949,297,DiscriminationTrials
607affb9d112a7e23c03a96d,Group_FJ,0,63fc4b75264600eb92114d26d41b3f1cb008710660fa75110acedf0fc710458f,1909.0732100009918,False,keypress,testRsp,171,[],choice-response,Lab,620ec53fa0554592d9045bb5,Lab6,1027,298,DiscriminationTrials
607affb9d112a7e23c03a96d,Group_FJ,0,63fc4b75264600eb92114d26d41b3f1cb008710660fa75110acedf0fc710458f,1909.0732100009918,False,keypress,testRsp,192,[],choice-response,Lab,620ec53fa0554592d9045bb5,Lab1,933,299,DiscriminationTrials
607affb9d112a7e23c03a96d,Group_FJ,0,63fc4b75264600eb92114d26d41b3f1cb008710660fa75110acedf0fc710458f,1909.0732100009918,False,keypress,testRsp,174,[],choice-response,Lab,620ec53fa0554592d9045bb5,Lab5,996,300,DiscriminationTrials
607affb9d112a7e23c03a96d,Group_FJ,0,63fc4b75264600eb92114d26d41b3f1cb008710660fa75110acedf0fc710458f,1909.0732100009918,False,keypress,testRsp,193,[],choice-response,Lab,620ec53fa0554592d9045bb5,Lab7,1052,301,DiscriminationTrials
607affb9d112a7e23c03a96d,Group_FJ,0,63fc4b75264600eb92114d26d41b3f1cb008710660fa75110acedf0fc710458f,1909.0732100009918,False,keypress,testRsp,368,[],choice-response,Lab,620ec53fa0554592d9045bb5,Lab8,1127,302,DiscriminationTrials
607affb9d112a7e23c03a96d,Group_FJ,0,63fc4b75264600eb92114d26d41b3f1cb008710660fa75110acedf0fc710458f,1909.0732100009918,False,keypress,testRsp,367,[],choice-response,Lab,620ec53fa0554592d9045bb5,Lab1,991,303,DiscriminationTrials
607affb9d112a7e23c03a96d,Group_FJ,0,63fc4b75264600eb92114d26d41b3f1cb008710660fa75110acedf0fc710458f,1909.0732100009918,False,keypress,testRsp,375,[],choice-response,Lab,620ec53fa0554592d9045bb5,Lab3,1042,304,DiscriminationTrials
607affb9d112a7e23c03a96d,Group_FJ,0,63fc4b75264600eb92114d26d41b3f1cb008710660fa75110acedf0fc710458f,1909.0732100009918,False,keypress,testRsp,253,[],choice-response,Lab,620ec53fa0554592d9045bb5,Lab6,978,305,DiscriminationTrials
607affb9d112a7e23c03a96d,Group_FJ,0,63fc4b75264600eb92114d26d41b3f1cb008710660fa75110acedf0fc710458f,1909.0732100009918,False,keypress,testRsp,233,[],choice-response,Lab,620ec53fa0554592d9045bb5,Lab4,1013,306,DiscriminationTrials
607affb9d112a7e23c03a96d,Group_FJ,0,63fc4b75264600eb92114d26d41b3f1cb008710660fa75110acedf0fc710458f,1909.0732100009918,False,keypress,testRsp,242,[],choice-response,Lab,620ec53fa0554592d9045bb5,Lab2,1012,307,DiscriminationTrials
607affb9d112a7e23c03a96d,Group_FJ,0,63fc4b75264600eb92114d26d41b3f1cb008710660fa75110acedf0fc710458f,1909.0732100009918,False,keypress,testRsp,410,[],choice-response,Lap,620ec53fa0554592d9045bb5,Lab8,1171,308,DiscriminationTrials
607affb9d112a7e23c03a96d,Group_FJ,0,63fc4b75264600eb92114d26d41b3f1cb008710660fa75110acedf0fc710458f,1909.0732100009918,False,keypress,testRsp,187,[],choice-response,Lap,620ec53fa0554592d9045bb5,Lab2,828,309,DiscriminationTrials
607affb9d112a7e23c03a96d,Group_FJ,0,63fc4b75264600eb92114d26d41b3f1cb008710660fa75110acedf0fc710458f,1909.0732100009918,False,keypress,testRsp,210,[],choice-response,Lap,620ec53fa0554592d9045bb5,Lab1,836,310,DiscriminationTrials
607affb9d112a7e23c03a96d,Group_FJ,0,63fc4b75264600eb92114d26d41b3f1cb008710660fa75110acedf0fc710458f,1909.0732100009918,False,keypress,testRsp,207,[],choice-response,Lap,620ec53fa0554592d9045bb5,Lab4,870,311,DiscriminationTrials
607affb9d112a7e23c03a96d,Group_FJ,0,63fc4b75264600eb92114d26d41b3f1cb008710660fa75110acedf0fc710458f,1909.0732100009918,False,keypress,testRsp,669,[],choice-response,Lab,620ec53fa0554592d9045bb5,Lab3,1332,312,DiscriminationTrials
607affb9d112a7e23c03a96d,Group_FJ,0,63fc4b75264600eb92114d26d41b3f1cb008710660fa75110acedf0fc710458f,1909.0732100009918,False,keypress,testRsp,174,[],choice-response,Lab,620ec53fa0554592d9045bb5,Lab7,900,313,DiscriminationTrials
607affb9d112a7e23c03a96d,Group_FJ,0,63fc4b75264600eb92114d26d41b3f1cb008710660fa75110acedf0fc710458f,1909.0732100009918,False,keypress,testRsp,163,[],choice-response,Lab,620ec53fa0554592d9045bb5,Lab6,891,314,DiscriminationTrials
607affb9d112a7e23c03a96d,Group_FJ,0,63fc4b75264600eb92114d26d41b3f1cb008710660fa75110acedf0fc710458f,1909.0732100009918,False,keypress,testRsp,173,[],choice-response,Lab,620ec53fa0554592d9045bb5,Lab5,873,315,DiscriminationTrials
607affb9d112a7e23c03a96d,Group_FJ,0,63fc4b75264600eb92114d26d41b3f1cb008710660fa75110acedf0fc710458f,1909.0732100009918,False,keypress,testRsp,158,[],choice-response,Lab,620ec53fa0554592d9045bb5,Lab5,867,316,DiscriminationTrials
607affb9d112a7e23c03a96d,Group_FJ,0,63fc4b75264600eb92114d26d41b3f1cb008710660fa75110acedf0fc710458f,1909.0732100009918,False,keypress,testRsp,167,[],choice-response,Lab,620ec53fa0554592d9045bb5,Lab6,888,317,DiscriminationTrials
607affb9d112a7e23c03a96d,Group_FJ,0,63fc4b75264600eb92114d26d41b3f1cb008710660fa75110acedf0fc710458f,1909.0732100009918,False,keypress,testRsp,186,[],choice-response,Lab,620ec53fa0554592d9045bb5,Lab4,853,318,DiscriminationTrials
607affb9d112a7e23c03a96d,Group_FJ,0,63fc4b75264600eb92114d26d41b3f1cb008710660fa75110acedf0fc710458f,1909.0732100009918,False,keypress,testRsp,198,[],choice-response,Lab,620ec53fa0554592d9045bb5,Lab2,845,319,DiscriminationTrials
607affb9d112a7e23c03a96d,Group_FJ,0,63fc4b75264600eb92114d26d41b3f1cb008710660fa75110acedf0fc710458f,1909.0732100009918,False,keypress,testRsp,183,[],choice-response,Lab,620ec53fa0554592d9045bb5,Lab3,846,320,DiscriminationTrials
607affb9d112a7e23c03a96d,Group_FJ,0,63fc4b75264600eb92114d26d41b3f1cb008710660fa75110acedf0fc710458f,1909.0732100009918,False,keypress,testRsp,92,[],choice-response,Lab,620ec53fa0554592d9045bb5,Lab7,812,321,DiscriminationTrials
607affb9d112a7e23c03a96d,Group_FJ,0,63fc4b75264600eb92114d26d41b3f1cb008710660fa75110acedf0fc710458f,1909.0732100009918,False,keypress,testRsp,88,[],choice-response,Lab,620ec53fa0554592d9045bb5,Lab8,848,322,DiscriminationTrials
607affb9d112a7e23c03a96d,Group_FJ,0,63fc4b75264600eb92114d26d41b3f1cb008710660fa75110acedf0fc710458f,1909.0732100009918,False,keypress,testRsp,195,[],choice-response,Lab,620ec53fa0554592d9045bb5,Lab1,819,323,DiscriminationTrials
607affb9d112a7e23c03a96d,Group_FJ,0,63fc4b75264600eb92114d26d41b3f1cb008710660fa75110acedf0fc710458f,1909.0732100009918,False,keypress,testRsp,104,[],choice-response,Lab,620ec53fa0554592d9045bb5,Lab8,871,324,DiscriminationTrials
607affb9d112a7e23c03a96d,Group_FJ,0,63fc4b75264600eb92114d26d41b3f1cb008710660fa75110acedf0fc710458f,1909.0732100009918,False,keypress,testRsp,222,[],choice-response,Lab,620ec53fa0554592d9045bb5,Lab4,879,325,DiscriminationTrials
607affb9d112a7e23c03a96d,Group_FJ,0,63fc4b75264600eb92114d26d41b3f1cb008710660fa75110acedf0fc710458f,1909.0732100009918,False,keypress,testRsp,233,[],choice-response,Lab,620ec53fa0554592d9045bb5,Lab6,954,326,DiscriminationTrials
607affb9d112a7e23c03a96d,Group_FJ,0,63fc4b75264600eb92114d26d41b3f1cb008710660fa75110acedf0fc710458f,1909.0732100009918,False,keypress,testRsp,178,[],choice-response,Lab,620ec53fa0554592d9045bb5,Lab5,1017,327,DiscriminationTrials
607affb9d112a7e23c03a96d,Group_FJ,0,63fc4b75264600eb92114d26d41b3f1cb008710660fa75110acedf0fc710458f,1909.0732100009918,False,keypress,testRsp,179,[],choice-response,Lab,620ec53fa0554592d9045bb5,Lab1,915,328,DiscriminationTrials
607affb9d112a7e23c03a96d,Group_FJ,0,63fc4b75264600eb92114d26d41b3f1cb008710660fa75110acedf0fc710458f,1909.0732100009918,False,keypress,testRsp,183,[],choice-response,Lab,620ec53fa0554592d9045bb5,Lab7,1046,329,DiscriminationTrials
607affb9d112a7e23c03a96d,Group_FJ,0,63fc4b75264600eb92114d26d41b3f1cb008710660fa75110acedf0fc710458f,1909.0732100009918,False,keypress,testRsp,139,[],choice-response,Lab,620ec53fa0554592d9045bb5,Lab3,928,330,DiscriminationTrials
607affb9d112a7e23c03a96d,Group_FJ,0,63fc4b75264600eb92114d26d41b3f1cb008710660fa75110acedf0fc710458f,1909.0732100009918,False,keypress,testRsp,140,[],choice-response,Lab,620ec53fa0554592d9045bb5,Lab2,912,331,DiscriminationTrials
607affb9d112a7e23c03a96d,Group_FJ,0,63fc4b75264600eb92114d26d41b3f1cb008710660fa75110acedf0fc710458f,1909.0732100009918,False,keypress,testRsp,125,[],choice-response,Lab,620ec53fa0554592d9045bb5,Lab7,850,332,DiscriminationTrials
607affb9d112a7e23c03a96d,Group_FJ,0,63fc4b75264600eb92114d26d41b3f1cb008710660fa75110acedf0fc710458f,1909.0732100009918,False,keypress,testRsp,151,[],choice-response,Lab,620ec53fa0554592d9045bb5,Lab4,947,333,DiscriminationTrials
607affb9d112a7e23c03a96d,Group_FJ,0,63fc4b75264600eb92114d26d41b3f1cb008710660fa75110acedf0fc710458f,1909.0732100009918,False,keypress,testRsp,136,[],choice-response,Lab,620ec53fa0554592d9045bb5,Lab1,758,334,DiscriminationTrials
607affb9d112a7e23c03a96d,Group_FJ,0,63fc4b75264600eb92114d26d41b3f1cb008710660fa75110acedf0fc710458f,1909.0732100009918,False,keypress,testRsp,162,[],choice-response,Lab,620ec53fa0554592d9045bb5,Lab2,807,335,DiscriminationTrials
607affb9d112a7e23c03a96d,Group_FJ,0,63fc4b75264600eb92114d26d41b3f1cb008710660fa75110acedf0fc710458f,1909.0732100009918,False,keypress,testRsp,78,[],choice-response,Lab,620ec53fa0554592d9045bb5,Lab5,778,336,DiscriminationTrials
607affb9d112a7e23c03a96d,Group_FJ,0,63fc4b75264600eb92114d26d41b3f1cb008710660fa75110acedf0fc710458f,1909.0732100009918,False,keypress,testRsp,69,[],choice-response,Lab,620ec53fa0554592d9045bb5,Lab6,793,337,DiscriminationTrials
607affb9d112a7e23c03a96d,Group_FJ,0,63fc4b75264600eb92114d26d41b3f1cb008710660fa75110acedf0fc710458f,1909.0732100009918,False,keypress,testRsp,107,[],choice-response,Lab,620ec53fa0554592d9045bb5,Lab3,773,338,DiscriminationTrials
607affb9d112a7e23c03a96d,Group_FJ,0,63fc4b75264600eb92114d26d41b3f1cb008710660fa75110acedf0fc710458f,1909.0732100009918,False,keypress,testRsp,276,[],choice-response,Lab,620ec53fa0554592d9045bb5,Lab8,1171,339,DiscriminationTrials
607affb9d112a7e23c03a96d,Group_FJ,0,63fc4b75264600eb92114d26d41b3f1cb008710660fa75110acedf0fc710458f,1909.0732100009918,False,keypress,testRsp,200,[],choice-response,Lab,620ec53fa0554592d9045bb5,Lab1,937,340,DiscriminationTrials
607affb9d112a7e23c03a96d,Group_FJ,0,63fc4b75264600eb92114d26d41b3f1cb008710660fa75110acedf0fc710458f,1909.0732100009918,False,keypress,testRsp,297,[],choice-response,Lap,620ec53fa0554592d9045bb5,Lab8,1060,341,DiscriminationTrials
607affb9d112a7e23c03a96d,Group_FJ,0,63fc4b75264600eb92114d26d41b3f1cb008710660fa75110acedf0fc710458f,1909.0732100009918,False,keypress,testRsp,469,[],choice-response,Lab,620ec53fa0554592d9045bb5,Lab6,1334,342,DiscriminationTrials
607affb9d112a7e23c03a96d,Group_FJ,0,63fc4b75264600eb92114d26d41b3f1cb008710660fa75110acedf0fc710458f,1909.0732100009918,False,keypress,testRsp,375,[],choice-response,Lab,620ec53fa0554592d9045bb5,Lab4,1167,343,DiscriminationTrials
607affb9d112a7e23c03a96d,Group_FJ,0,63fc4b75264600eb92114d26d41b3f1cb008710660fa75110acedf0fc710458f,1909.0732100009918,False,keypress,testRsp,433,[],choice-response,Lap,620ec53fa0554592d9045bb5,Lab2,1201,344,DiscriminationTrials
607affb9d112a7e23c03a96d,Group_FJ,0,63fc4b75264600eb92114d26d41b3f1cb008710660fa75110acedf0fc710458f,1909.0732100009918,False,keypress,testRsp,174,[],choice-response,Lab,620ec53fa0554592d9045bb5,Lab5,1005,345,DiscriminationTrials
607affb9d112a7e23c03a96d,Group_FJ,0,63fc4b75264600eb92114d26d41b3f1cb008710660fa75110acedf0fc710458f,1909.0732100009918,False,keypress,testRsp,48,[],choice-response,Lap,620ec53fa0554592d9045bb5,Lab3,836,346,DiscriminationTrials
607affb9d112a7e23c03a96d,Group_FJ,0,63fc4b75264600eb92114d26d41b3f1cb008710660fa75110acedf0fc710458f,1909.0732100009918,False,keypress,testRsp,575,[],choice-response,Lab,620ec53fa0554592d9045bb5,Lab7,1418,347,DiscriminationTrials
607affb9d112a7e23c03a96d,Group_FJ,0,63fc4b75264600eb92114d26d41b3f1cb008710660fa75110acedf0fc710458f,1909.0732100009918,False,keypress,testRsp,71,[],choice-response,Lap,620ec53fa0554592d9045bb5,Lab8,828,348,DiscriminationTrials
607affb9d112a7e23c03a96d,Group_FJ,0,63fc4b75264600eb92114d26d41b3f1cb008710660fa75110acedf0fc710458f,1909.0732100009918,False,keypress,testRsp,266,[],choice-response,Lab,620ec53fa0554592d9045bb5,Lab7,987,349,DiscriminationTrials
607affb9d112a7e23c03a96d,Group_FJ,0,63fc4b75264600eb92114d26d41b3f1cb008710660fa75110acedf0fc710458f,1909.0732100009918,False,keypress,testRsp,135,[],choice-response,Lab,620ec53fa0554592d9045bb5,Lab5,843,350,DiscriminationTrials
607affb9d112a7e23c03a96d,Group_FJ,0,63fc4b75264600eb92114d26d41b3f1cb008710660fa75110acedf0fc710458f,1909.0732100009918,False,keypress,testRsp,231,[],choice-response,Lab,620ec53fa0554592d9045bb5,Lab1,858,351,DiscriminationTrials
607affb9d112a7e23c03a96d,Group_FJ,0,63fc4b75264600eb92114d26d41b3f1cb008710660fa75110acedf0fc710458f,1909.0732100009918,False,keypress,testRsp,203,[],choice-response,Lab,620ec53fa0554592d9045bb5,Lab6,933,352,DiscriminationTrials
607affb9d112a7e23c03a96d,Group_FJ,0,63fc4b75264600eb92114d26d41b3f1cb008710660fa75110acedf0fc710458f,1909.0732100009918,False,keypress,testRsp,136,[],choice-response,Lap,620ec53fa0554592d9045bb5,Lab3,796,353,DiscriminationTrials
607affb9d112a7e23c03a96d,Group_FJ,0,63fc4b75264600eb92114d26d41b3f1cb008710660fa75110acedf0fc710458f,1909.0732100009918,False,keypress,testRsp,87,[],choice-response,Lap,620ec53fa0554592d9045bb5,Lab4,752,354,DiscriminationTrials
607affb9d112a7e23c03a96d,Group_FJ,0,63fc4b75264600eb92114d26d41b3f1cb008710660fa75110acedf0fc710458f,1909.0732100009918,False,keypress,testRsp,125,[],choice-response,Lap,620ec53fa0554592d9045bb5,Lab2,761,355,DiscriminationTrials
607affb9d112a7e23c03a96d,Group_FJ,0,63fc4b75264600eb92114d26d41b3f1cb008710660fa75110acedf0fc710458f,1909.0732100009918,False,keypress,testRsp,115,[],choice-response,Lap,620ec53fa0554592d9045bb5,Lab1,733,356,DiscriminationTrials
607affb9d112a7e23c03a96d,Group_FJ,0,63fc4b75264600eb92114d26d41b3f1cb008710660fa75110acedf0fc710458f,1909.0732100009918,False,keypress,testRsp,72,[],choice-response,Lap,620ec53fa0554592d9045bb5,Lab2,718,357,DiscriminationTrials
607affb9d112a7e23c03a96d,Group_FJ,0,63fc4b75264600eb92114d26d41b3f1cb008710660fa75110acedf0fc710458f,1909.0732100009918,False,keypress,testRsp,43,[],choice-response,Lap,620ec53fa0554592d9045bb5,Lab3,843,358,DiscriminationTrials
607affb9d112a7e23c03a96d,Group_FJ,0,63fc4b75264600eb92114d26d41b3f1cb008710660fa75110acedf0fc710458f,1909.0732100009918,False,keypress,testRsp,564,[],choice-response,Lap,620ec53fa0554592d9045bb5,Lab7,1413,359,DiscriminationTrials
607affb9d112a7e23c03a96d,Group_FJ,0,63fc4b75264600eb92114d26d41b3f1cb008710660fa75110acedf0fc710458f,1909.0732100009918,False,keypress,testRsp,408,[],choice-response,Lap,620ec53fa0554592d9045bb5,Lab5,1247,360,DiscriminationTrials
607affb9d112a7e23c03a96d,Group_FJ,0,63fc4b75264600eb92114d26d41b3f1cb008710660fa75110acedf0fc710458f,1909.0732100009918,False,keypress,testRsp,194,[],choice-response,Lap,620ec53fa0554592d9045bb5,Lab4,977,361,DiscriminationTrials
607affb9d112a7e23c03a96d,Group_FJ,0,63fc4b75264600eb92114d26d41b3f1cb008710660fa75110acedf0fc710458f,1909.0732100009918,False,keypress,testRsp,149,[],choice-response,Lap,620ec53fa0554592d9045bb5,Lab8,1038,362,DiscriminationTrials
607affb9d112a7e23c03a96d,Group_FJ,0,63fc4b75264600eb92114d26d41b3f1cb008710660fa75110acedf0fc710458f,1909.0732100009918,False,keypress,testRsp,99,[],choice-response,Lap,620ec53fa0554592d9045bb5,Lab6,953,363,DiscriminationTrials
607affb9d112a7e23c03a96d,Group_FJ,0,63fc4b75264600eb92114d26d41b3f1cb008710660fa75110acedf0fc710458f,1909.0732100009918,False,keypress,testRsp,806,[],choice-response,Lab,620ec53fa0554592d9045bb5,ontime_Lab8,3955,364,example
607affb9d112a7e23c03a96d,Group_FJ,0,63fc4b75264600eb92114d26d41b3f1cb008710660fa75110acedf0fc710458f,1909.0732100009918,False,keypress,testRsp,381,[],choice-response,Lap,620ec53fa0554592d9045bb5,ontime_Lab1,3357,365,example
607affb9d112a7e23c03a96d,Group_FJ,0,63fc4b75264600eb92114d26d41b3f1cb008710660fa75110acedf0fc710458f,1909.0732100009918,False,keypress,testRsp,941,[],choice-response,Lab,620ec53fa0554592d9045bb5,ontime_Lab8,4083,366,example
607affb9d112a7e23c03a96d,Group_FJ,0,63fc4b75264600eb92114d26d41b3f1cb008710660fa75110acedf0fc710458f,1909.0732100009918,False,keypress,testRsp,326,[],choice-response,Lap,620ec53fa0554592d9045bb5,ontime_Lab1,3328,367,example
607affb9d112a7e23c03a96d,Group_FJ,0,63fc4b75264600eb92114d26d41b3f1cb008710660fa75110acedf0fc710458f,1909.0732100009918,False,keypress,testRsp,425,[],choice-response,Lab,620ec53fa0554592d9045bb5,ontime_Lab7,3537,368,maintaskTrials
607affb9d112a7e23c03a96d,Group_FJ,0,63fc4b75264600eb92114d26d41b3f1cb008710660fa75110acedf0fc710458f,1909.0732100009918,False,keypress,testRsp,591,[],choice-response,Lab,620ec53fa0554592d9045bb5,early_Lab8,3621,369,maintaskTrials
607affb9d112a7e23c03a96d,Group_FJ,0,63fc4b75264600eb92114d26d41b3f1cb008710660fa75110acedf0fc710458f,1909.0732100009918,False,keypress,testRsp,256,[],choice-response,Lab,620ec53fa0554592d9045bb5,ontime_Lab4,3328,370,maintaskTrials
607affb9d112a7e23c03a96d,Group_FJ,0,63fc4b75264600eb92114d26d41b3f1cb008710660fa75110acedf0fc710458f,1909.0732100009918,False,keypress,testRsp,271,[],choice-response,Lab,620ec53fa0554592d9045bb5,late_Lab8,3478,371,maintaskTrials
607affb9d112a7e23c03a96d,Group_FJ,0,63fc4b75264600eb92114d26d41b3f1cb008710660fa75110acedf0fc710458f,1909.0732100009918,False,keypress,testRsp,290,[],choice-response,Lab,620ec53fa0554592d9045bb5,late_Lab2,3371,372,maintaskTrials
607affb9d112a7e23c03a96d,Group_FJ,0,63fc4b75264600eb92114d26d41b3f1cb008710660fa75110acedf0fc710458f,1909.0732100009918,False,keypress,testRsp,279,[],choice-response,Lab,620ec53fa0554592d9045bb5,early_Lab7,3262,373,maintaskTrials
607affb9d112a7e23c03a96d,Group_FJ,0,63fc4b75264600eb92114d26d41b3f1cb008710660fa75110acedf0fc710458f,1909.0732100009918,False,keypress,testRsp,194,[],choice-response,Lab,620ec53fa0554592d9045bb5,late_Lab7,3279,374,maintaskTrials
607affb9d112a7e23c03a96d,Group_FJ,0,63fc4b75264600eb92114d26d41b3f1cb008710660fa75110acedf0fc710458f,1909.0732100009918,False,keypress,testRsp,344,[],choice-response,Lap,620ec53fa0554592d9045bb5,ontime_Lab1,3321,375,maintaskTrials
607affb9d112a7e23c03a96d,Group_FJ,0,63fc4b75264600eb92114d26d41b3f1cb008710660fa75110acedf0fc710458f,1909.0732100009918,False,keypress,testRsp,643,[],choice-response,Lap,620ec53fa0554592d9045bb5,late_Lab1,3633,376,maintaskTrials
607affb9d112a7e23c03a96d,Group_FJ,0,63fc4b75264600eb92114d26d41b3f1cb008710660fa75110acedf0fc710458f,1909.0732100009918,False,keypress,testRsp,277,[],choice-response,Lap,620ec53fa0554592d9045bb5,early_Lab3,3096,377,maintaskTrials
607affb9d112a7e23c03a96d,Group_FJ,0,63fc4b75264600eb92114d26d41b3f1cb008710660fa75110acedf0fc710458f,1909.0732100009918,False,keypress,testRsp,228,[],choice-response,Lab,620ec53fa0554592d9045bb5,ontime_Lab3,3216,378,maintaskTrials
607affb9d112a7e23c03a96d,Group_FJ,0,63fc4b75264600eb92114d26d41b3f1cb008710660fa75110acedf0fc710458f,1909.0732100009918,False,keypress,testRsp,1026,[],choice-response,Lab,620ec53fa0554592d9045bb5,ontime_Lab6,4119,379,maintaskTrials
607affb9d112a7e23c03a96d,Group_FJ,0,63fc4b75264600eb92114d26d41b3f1cb008710660fa75110acedf0fc710458f,1909.0732100009918,False,keypress,testRsp,630,[],choice-response,Lab,620ec53fa0554592d9045bb5,late_Lab6,3707,380,maintaskTrials
607affb9d112a7e23c03a96d,Group_FJ,0,63fc4b75264600eb92114d26d41b3f1cb008710660fa75110acedf0fc710458f,1909.0732100009918,False,keypress,testRsp,226,[],choice-response,Lab,620ec53fa0554592d9045bb5,late_Lab5,3359,381,maintaskTrials
607affb9d112a7e23c03a96d,Group_FJ,0,63fc4b75264600eb92114d26d41b3f1cb008710660fa75110acedf0fc710458f,1909.0732100009918,False,keypress,testRsp,74,[],choice-response,Lab,620ec53fa0554592d9045bb5,ontime_Lab5,3041,382,maintaskTrials
607affb9d112a7e23c03a96d,Group_FJ,0,63fc4b75264600eb92114d26d41b3f1cb008710660fa75110acedf0fc710458f,1909.0732100009918,False,keypress,testRsp,133,[],choice-response,Lab,620ec53fa0554592d9045bb5,early_Lab1,2910,383,maintaskTrials
607affb9d112a7e23c03a96d,Group_FJ,0,63fc4b75264600eb92114d26d41b3f1cb008710660fa75110acedf0fc710458f,1909.0732100009918,False,keypress,testRsp,326,[],choice-response,Lab,620ec53fa0554592d9045bb5,early_Lab6,3227,384,maintaskTrials
607affb9d112a7e23c03a96d,Group_FJ,0,63fc4b75264600eb92114d26d41b3f1cb008710660fa75110acedf0fc710458f,1909.0732100009918,False,keypress,testRsp,858,[],choice-response,Lab,620ec53fa0554592d9045bb5,late_Lab3,3954,385,maintaskTrials
607affb9d112a7e23c03a96d,Group_FJ,0,63fc4b75264600eb92114d26d41b3f1cb008710660fa75110acedf0fc710458f,1909.0732100009918,False,keypress,testRsp,526,[],choice-response,Lab,620ec53fa0554592d9045bb5,ontime_Lab2,3422,386,maintaskTrials
607affb9d112a7e23c03a96d,Group_FJ,0,63fc4b75264600eb92114d26d41b3f1cb008710660fa75110acedf0fc710458f,1909.0732100009918,False,keypress,testRsp,453,[],choice-response,Lab,620ec53fa0554592d9045bb5,late_Lab4,3479,387,maintaskTrials
607affb9d112a7e23c03a96d,Group_FJ,0,63fc4b75264600eb92114d26d41b3f1cb008710660fa75110acedf0fc710458f,1909.0732100009918,True,keypress,cat_catchRsp,4706,['Cat meowing'],choice-response,Cat meowing,620ec53fa0554592d9045bb5,cat_meowing,7215,388,Catch_cat
607affb9d112a7e23c03a96d,Group_FJ,0,63fc4b75264600eb92114d26d41b3f1cb008710660fa75110acedf0fc710458f,1909.0732100009918,False,keypress,testRsp,1108,[],choice-response,Lab,620ec53fa0554592d9045bb5,early_Lab2,3915,389,maintaskTrials
607affb9d112a7e23c03a96d,Group_FJ,0,63fc4b75264600eb92114d26d41b3f1cb008710660fa75110acedf0fc710458f,1909.0732100009918,False,keypress,testRsp,609,[],choice-response,Lab,620ec53fa0554592d9045bb5,ontime_Lab8,3634,390,maintaskTrials
607affb9d112a7e23c03a96d,Group_FJ,0,63fc4b75264600eb92114d26d41b3f1cb008710660fa75110acedf0fc710458f,1909.0732100009918,False,keypress,testRsp,551,[],choice-response,Lab,620ec53fa0554592d9045bb5,early_Lab4,3403,391,maintaskTrials
607affb9d112a7e23c03a96d,Group_FJ,0,63fc4b75264600eb92114d26d41b3f1cb008710660fa75110acedf0fc710458f,1909.0732100009918,False,keypress,testRsp,335,[],choice-response,Lab,620ec53fa0554592d9045bb5,early_Lab5,3199,392,maintaskTrials
607affb9d112a7e23c03a96d,Group_FJ,0,63fc4b75264600eb92114d26d41b3f1cb008710660fa75110acedf0fc710458f,1909.0732100009918,False,keypress,testRsp,236,[],choice-response,Lab,620ec53fa0554592d9045bb5,early_Lab5,2943,393,maintaskTrials
607affb9d112a7e23c03a96d,Group_FJ,0,63fc4b75264600eb92114d26d41b3f1cb008710660fa75110acedf0fc710458f,1909.0732100009918,False,keypress,testRsp,293,[],choice-response,Lab,620ec53fa0554592d9045bb5,late_Lab7,3381,394,maintaskTrials
607affb9d112a7e23c03a96d,Group_FJ,0,63fc4b75264600eb92114d26d41b3f1cb008710660fa75110acedf0fc710458f,1909.0732100009918,False,keypress,testRsp,261,[],choice-response,Lab,620ec53fa0554592d9045bb5,early_Lab7,3159,395,maintaskTrials
607affb9d112a7e23c03a96d,Group_FJ,0,63fc4b75264600eb92114d26d41b3f1cb008710660fa75110acedf0fc710458f,1909.0732100009918,False,keypress,testRsp,427,[],choice-response,Lap,620ec53fa0554592d9045bb5,ontime_Lab1,3299,396,maintaskTrials
607affb9d112a7e23c03a96d,Group_FJ,0,63fc4b75264600eb92114d26d41b3f1cb008710660fa75110acedf0fc710458f,1909.0732100009918,False,keypress,testRsp,240,[],choice-response,Lab,620ec53fa0554592d9045bb5,early_Lab8,3166,397,maintaskTrials
607affb9d112a7e23c03a96d,Group_FJ,0,63fc4b75264600eb92114d26d41b3f1cb008710660fa75110acedf0fc710458f,1909.0732100009918,False,keypress,testRsp,266,[],choice-response,Lab,620ec53fa0554592d9045bb5,ontime_Lab8,3299,398,maintaskTrials
607affb9d112a7e23c03a96d,Group_FJ,0,63fc4b75264600eb92114d26d41b3f1cb008710660fa75110acedf0fc710458f,1909.0732100009918,False,keypress,testRsp,283,[],choice-response,Lap,620ec53fa0554592d9045bb5,late_Lab1,3240,399,maintaskTrials
607affb9d112a7e23c03a96d,Group_FJ,0,63fc4b75264600eb92114d26d41b3f1cb008710660fa75110acedf0fc710458f,1909.0732100009918,False,keypress,testRsp,217,[],choice-response,Lab,620ec53fa0554592d9045bb5,late_Lab4,3235,400,maintaskTrials
607affb9d112a7e23c03a96d,Group_FJ,0,63fc4b75264600eb92114d26d41b3f1cb008710660fa75110acedf0fc710458f,1909.0732100009918,False,keypress,testRsp,827,[],choice-response,Lab,620ec53fa0554592d9045bb5,ontime_Lab4,3764,401,maintaskTrials
607affb9d112a7e23c03a96d,Group_FJ,0,63fc4b75264600eb92114d26d41b3f1cb008710660fa75110acedf0fc710458f,1909.0732100009918,False,keypress,testRsp,208,[],choice-response,Lab,620ec53fa0554592d9045bb5,ontime_Lab5,3162,402,maintaskTrials
607affb9d112a7e23c03a96d,Group_FJ,0,63fc4b75264600eb92114d26d41b3f1cb008710660fa75110acedf0fc710458f,1909.0732100009918,False,keypress,testRsp,244,[],choice-response,Lab,620ec53fa0554592d9045bb5,late_Lab5,3288,403,maintaskTrials
607affb9d112a7e23c03a96d,Group_FJ,0,63fc4b75264600eb92114d26d41b3f1cb008710660fa75110acedf0fc710458f,1909.0732100009918,False,keypress,testRsp,707,[],choice-response,Lab,620ec53fa0554592d9045bb5,ontime_Lab2,3596,404,maintaskTrials
607affb9d112a7e23c03a96d,Group_FJ,0,63fc4b75264600eb92114d26d41b3f1cb008710660fa75110acedf0fc710458f,1909.0732100009918,False,keypress,testRsp,190,[],choice-response,Lab,620ec53fa0554592d9045bb5,ontime_Lab3,3086,405,maintaskTrials
607affb9d112a7e23c03a96d,Group_FJ,0,63fc4b75264600eb92114d26d41b3f1cb008710660fa75110acedf0fc710458f,1909.0732100009918,False,keypress,testRsp,287,[],choice-response,Lab,620ec53fa0554592d9045bb5,ontime_Lab7,3268,406,maintaskTrials
607affb9d112a7e23c03a96d,Group_FJ,0,63fc4b75264600eb92114d26d41b3f1cb008710660fa75110acedf0fc710458f,1909.0732100009918,False,keypress,testRsp,212,[],choice-response,Lab,620ec53fa0554592d9045bb5,late_Lab6,3278,407,maintaskTrials
607affb9d112a7e23c03a96d,Group_FJ,0,63fc4b75264600eb92114d26d41b3f1cb008710660fa75110acedf0fc710458f,1909.0732100009918,False,keypress,testRsp,224,[],choice-response,Lab,620ec53fa0554592d9045bb5,early_Lab6,3093,408,maintaskTrials
607affb9d112a7e23c03a96d,Group_FJ,0,63fc4b75264600eb92114d26d41b3f1cb008710660fa75110acedf0fc710458f,1909.0732100009918,True,keypress,cat_catchRsp,1011,['Cat meowing'],choice-response,Cat meowing,620ec53fa0554592d9045bb5,cat_meowing,3529,409,Catch_cat
607affb9d112a7e23c03a96d,Group_FJ,0,63fc4b75264600eb92114d26d41b3f1cb008710660fa75110acedf0fc710458f,1909.0732100009918,False,keypress,testRsp,1354,[],choice-response,Lab,620ec53fa0554592d9045bb5,early_Lab3,4176,410,maintaskTrials
607affb9d112a7e23c03a96d,Group_FJ,0,63fc4b75264600eb92114d26d41b3f1cb008710660fa75110acedf0fc710458f,1909.0732100009918,False,keypress,testRsp,950,[],choice-response,Lab,620ec53fa0554592d9045bb5,late_Lab8,4049,411,maintaskTrials
607affb9d112a7e23c03a96d,Group_FJ,0,63fc4b75264600eb92114d26d41b3f1cb008710660fa75110acedf0fc710458f,1909.0732100009918,False,keypress,testRsp,293,[],choice-response,Lab,620ec53fa0554592d9045bb5,ontime_Lab6,3267,412,maintaskTrials
607affb9d112a7e23c03a96d,Group_FJ,0,63fc4b75264600eb92114d26d41b3f1cb008710660fa75110acedf0fc710458f,1909.0732100009918,False,keypress,testRsp,279,[],choice-response,Lap,620ec53fa0554592d9045bb5,early_Lab1,3059,413,maintaskTrials
607affb9d112a7e23c03a96d,Group_FJ,0,63fc4b75264600eb92114d26d41b3f1cb008710660fa75110acedf0fc710458f,1909.0732100009918,False,keypress,testRsp,494,[],choice-response,Lab,620ec53fa0554592d9045bb5,late_Lab2,3485,414,maintaskTrials
607affb9d112a7e23c03a96d,Group_FJ,0,63fc4b75264600eb92114d26d41b3f1cb008710660fa75110acedf0fc710458f,1909.0732100009918,False,keypress,testRsp,458,[],choice-response,Lap,620ec53fa0554592d9045bb5,early_Lab2,3236,415,maintaskTrials
607affb9d112a7e23c03a96d,Group_FJ,0,63fc4b75264600eb92114d26d41b3f1cb008710660fa75110acedf0fc710458f,1909.0732100009918,False,keypress,testRsp,254,[],choice-response,Lab,620ec53fa0554592d9045bb5,early_Lab4,3089,416,maintaskTrials
607affb9d112a7e23c03a96d,Group_FJ,0,63fc4b75264600eb92114d26d41b3f1cb008710660fa75110acedf0fc710458f,1909.0732100009918,False,keypress,testRsp,310,[],choice-response,Lab,620ec53fa0554592d9045bb5,late_Lab3,3300,417,maintaskTrials
607affb9d112a7e23c03a96d,Group_FJ,0,63fc4b75264600eb92114d26d41b3f1cb008710660fa75110acedf0fc710458f,1909.0732100009918,False,keypress,testRsp,242,[],choice-response,Lab,620ec53fa0554592d9045bb5,late_Lab6,3296,418,maintaskTrials
607affb9d112a7e23c03a96d,Group_FJ,0,63fc4b75264600eb92114d26d41b3f1cb008710660fa75110acedf0fc710458f,1909.0732100009918,False,keypress,testRsp,198,[],choice-response,Lab,620ec53fa0554592d9045bb5,ontime_Lab5,3169,419,maintaskTrials
607affb9d112a7e23c03a96d,Group_FJ,0,63fc4b75264600eb92114d26d41b3f1cb008710660fa75110acedf0fc710458f,1909.0732100009918,False,keypress,testRsp,279,[],choice-response,Lab,620ec53fa0554592d9045bb5,early_Lab2,3083,420,maintaskTrials
607affb9d112a7e23c03a96d,Group_FJ,0,63fc4b75264600eb92114d26d41b3f1cb008710660fa75110acedf0fc710458f,1909.0732100009918,False,keypress,testRsp,150,[],choice-response,Lab,620ec53fa0554592d9045bb5,early_Lab4,2984,421,maintaskTrials
607affb9d112a7e23c03a96d,Group_FJ,0,63fc4b75264600eb92114d26d41b3f1cb008710660fa75110acedf0fc710458f,1909.0732100009918,False,keypress,testRsp,70,[],choice-response,Lab,620ec53fa0554592d9045bb5,early_Lab6,2961,422,maintaskTrials
607affb9d112a7e23c03a96d,Group_FJ,0,63fc4b75264600eb92114d26d41b3f1cb008710660fa75110acedf0fc710458f,1909.0732100009918,False,keypress,testRsp,200,[],choice-response,Lab,620ec53fa0554592d9045bb5,late_Lab4,3242,423,maintaskTrials
607affb9d112a7e23c03a96d,Group_FJ,0,63fc4b75264600eb92114d26d41b3f1cb008710660fa75110acedf0fc710458f,1909.0732100009918,False,keypress,testRsp,597,[],choice-response,Lap,620ec53fa0554592d9045bb5,late_Lab1,3579,424,maintaskTrials
607affb9d112a7e23c03a96d,Group_FJ,0,63fc4b75264600eb92114d26d41b3f1cb008710660fa75110acedf0fc710458f,1909.0732100009918,False,keypress,testRsp,213,[],choice-response,Lab,620ec53fa0554592d9045bb5,late_Lab2,3178,425,maintaskTrials
607affb9d112a7e23c03a96d,Group_FJ,0,63fc4b75264600eb92114d26d41b3f1cb008710660fa75110acedf0fc710458f,1909.0732100009918,False,keypress,testRsp,180,[],choice-response,Lab,620ec53fa0554592d9045bb5,ontime_Lab8,3200,426,maintaskTrials
607affb9d112a7e23c03a96d,Group_FJ,0,63fc4b75264600eb92114d26d41b3f1cb008710660fa75110acedf0fc710458f,1909.0732100009918,False,keypress,testRsp,268,[],choice-response,Lab,620ec53fa0554592d9045bb5,ontime_Lab6,3231,427,maintaskTrials
607affb9d112a7e23c03a96d,Group_FJ,0,63fc4b75264600eb92114d26d41b3f1cb008710660fa75110acedf0fc710458f,1909.0732100009918,False,keypress,testRsp,215,[],choice-response,Lab,620ec53fa0554592d9045bb5,early_Lab7,3130,428,maintaskTrials
