expt_id,group_id,network_error_repeat,participant_id,participation_duration,response_correct,response_mode,response_name,response_rt,response_target,response_type,response_value,session_id,session_start_time,stimuli_presented,trial_duration,trial_num,trial_template
64f35663abb040f67b21100b,default,0,6ed458eddf568e8aea80f29470e56a89715adf4d60fbad8c2a6b66187c371d8c,1162.956885,TRUE,click,exampleRsp_lab,15198,['Out of time'],choice-response,Out of time,64f821cfabb040f67b21104a,2023-09-06 02:53:02-04:00,add8_150,23516,1,example_lab
64f35663abb040f67b21100b,default,0,6ed458eddf568e8aea80f29470e56a89715adf4d60fbad8c2a6b66187c371d8c,1162.956885,TRUE,click,exampleRsp_lab,1077,['Out of time'],choice-response,Out of time,64f821cfabb040f67b21104a,2023-09-06 02:53:02-04:00,add1_150,9795,2,example_lab
64f35663abb040f67b21100b,default,0,6ed458eddf568e8aea80f29470e56a89715adf4d60fbad8c2a6b66187c371d8c,1162.956885,TRUE,click,exampleRsp_tone,1113,['Out of time'],choice-response,Out of time,64f821cfabb040f67b21104a,2023-09-06 02:53:02-04:00,tone8_150,9625,3,example_tone
64f35663abb040f67b21100b,default,0,6ed458eddf568e8aea80f29470e56a89715adf4d60fbad8c2a6b66187c371d8c,1162.956885,TRUE,click,exampleRsp_lab,1383,['Out of time'],choice-response,Out of time,64f821cfabb040f67b21104a,2023-09-06 02:53:02-04:00,lab8_150,9805,4,example_lab
64f35663abb040f67b21100b,default,0,6ed458eddf568e8aea80f29470e56a89715adf4d60fbad8c2a6b66187c371d8c,1162.956885,TRUE,click,exampleRsp_tone,8806,['Out of time'],choice-response,Out of time,64f821cfabb040f67b21104a,2023-09-06 02:53:02-04:00,tone1_150,17120,5,example_tone
64f35663abb040f67b21100b,default,0,6ed458eddf568e8aea80f29470e56a89715adf4d60fbad8c2a6b66187c371d8c,1162.956885,TRUE,click,exampleRsp_lab,2789,['Out of time'],choice-response,Out of time,64f821cfabb040f67b21104a,2023-09-06 02:53:02-04:00,lab1_150,11094,6,example_lab
64f35663abb040f67b21100b,default,0,6ed458eddf568e8aea80f29470e56a89715adf4d60fbad8c2a6b66187c371d8c,1162.956885,FALSE,keypress,testRsp,758,[],choice-response,Out of time,64f821cfabb040f67b21104a,2023-09-06 02:53:02-04:00,add1_90,6517,7,maintaskTrials
64f35663abb040f67b21100b,default,0,6ed458eddf568e8aea80f29470e56a89715adf4d60fbad8c2a6b66187c371d8c,1162.956885,FALSE,keypress,testRsp,381,[],choice-response,Out of time,64f821cfabb040f67b21104a,2023-09-06 02:53:02-04:00,tone1_120,5912,8,maintaskTrials
64f35663abb040f67b21100b,default,0,6ed458eddf568e8aea80f29470e56a89715adf4d60fbad8c2a6b66187c371d8c,1162.956885,FALSE,keypress,testRsp,546,[],choice-response,In time,64f821cfabb040f67b21104a,2023-09-06 02:53:02-04:00,lab8_90,6203,9,maintaskTrials
64f35663abb040f67b21100b,default,0,6ed458eddf568e8aea80f29470e56a89715adf4d60fbad8c2a6b66187c371d8c,1162.956885,FALSE,keypress,testRsp,289,[],choice-response,Out of time,64f821cfabb040f67b21104a,2023-09-06 02:53:02-04:00,add8_120,6003,10,maintaskTrials
64f35663abb040f67b21100b,default,0,6ed458eddf568e8aea80f29470e56a89715adf4d60fbad8c2a6b66187c371d8c,1162.956885,FALSE,keypress,testRsp,271,[],choice-response,In time,64f821cfabb040f67b21104a,2023-09-06 02:53:02-04:00,add8_90,5938,11,maintaskTrials
64f35663abb040f67b21100b,default,0,6ed458eddf568e8aea80f29470e56a89715adf4d60fbad8c2a6b66187c371d8c,1162.956885,FALSE,keypress,testRsp,429,[],choice-response,Out of time,64f821cfabb040f67b21104a,2023-09-06 02:53:02-04:00,tone8_60,6324,12,maintaskTrials
64f35663abb040f67b21100b,default,0,6ed458eddf568e8aea80f29470e56a89715adf4d60fbad8c2a6b66187c371d8c,1162.956885,FALSE,keypress,testRsp,595,[],choice-response,In time,64f821cfabb040f67b21104a,2023-09-06 02:53:02-04:00,lab1_90,6330,13,maintaskTrials
64f35663abb040f67b21100b,default,0,6ed458eddf568e8aea80f29470e56a89715adf4d60fbad8c2a6b66187c371d8c,1162.956885,FALSE,keypress,testRsp,605,[],choice-response,In time,64f821cfabb040f67b21104a,2023-09-06 02:53:02-04:00,lab8_120,6402,14,maintaskTrials
64f35663abb040f67b21100b,default,0,6ed458eddf568e8aea80f29470e56a89715adf4d60fbad8c2a6b66187c371d8c,1162.956885,FALSE,keypress,testRsp,334,[],choice-response,In time,64f821cfabb040f67b21104a,2023-09-06 02:53:02-04:00,lab8_30,5883,15,maintaskTrials
64f35663abb040f67b21100b,default,0,6ed458eddf568e8aea80f29470e56a89715adf4d60fbad8c2a6b66187c371d8c,1162.956885,FALSE,keypress,testRsp,242,[],choice-response,Out of time,64f821cfabb040f67b21104a,2023-09-06 02:53:02-04:00,tone1_90,5906,16,maintaskTrials
64f35663abb040f67b21100b,default,0,6ed458eddf568e8aea80f29470e56a89715adf4d60fbad8c2a6b66187c371d8c,1162.956885,FALSE,keypress,testRsp,186,[],choice-response,In time,64f821cfabb040f67b21104a,2023-09-06 02:53:02-04:00,add8_30,5931,17,maintaskTrials
64f35663abb040f67b21100b,default,0,6ed458eddf568e8aea80f29470e56a89715adf4d60fbad8c2a6b66187c371d8c,1162.956885,FALSE,keypress,testRsp,353,[],choice-response,In time,64f821cfabb040f67b21104a,2023-09-06 02:53:02-04:00,add1_30,6378,18,maintaskTrials
64f35663abb040f67b21100b,default,0,6ed458eddf568e8aea80f29470e56a89715adf4d60fbad8c2a6b66187c371d8c,1162.956885,FALSE,keypress,testRsp,162,[],choice-response,Out of time,64f821cfabb040f67b21104a,2023-09-06 02:53:02-04:00,tone8_120,5788,19,maintaskTrials
64f35663abb040f67b21100b,default,0,6ed458eddf568e8aea80f29470e56a89715adf4d60fbad8c2a6b66187c371d8c,1162.956885,FALSE,keypress,testRsp,40712,[],choice-response,Out of time,64f821cfabb040f67b21104a,2023-09-06 02:53:02-04:00,tone8_90,46262,20,maintaskTrials
64f35663abb040f67b21100b,default,0,6ed458eddf568e8aea80f29470e56a89715adf4d60fbad8c2a6b66187c371d8c,1162.956885,FALSE,keypress,testRsp,820,[],choice-response,Out of time,64f821cfabb040f67b21104a,2023-09-06 02:53:02-04:00,lab8_0,6386,21,maintaskTrials
64f35663abb040f67b21100b,default,0,6ed458eddf568e8aea80f29470e56a89715adf4d60fbad8c2a6b66187c371d8c,1162.956885,FALSE,keypress,testRsp,454,[],choice-response,In time,64f821cfabb040f67b21104a,2023-09-06 02:53:02-04:00,lab8_60,6259,22,maintaskTrials
64f35663abb040f67b21100b,default,0,6ed458eddf568e8aea80f29470e56a89715adf4d60fbad8c2a6b66187c371d8c,1162.956885,FALSE,keypress,testRsp,151,[],choice-response,Out of time,64f821cfabb040f67b21104a,2023-09-06 02:53:02-04:00,tone1_60,5689,23,maintaskTrials
64f35663abb040f67b21100b,default,0,6ed458eddf568e8aea80f29470e56a89715adf4d60fbad8c2a6b66187c371d8c,1162.956885,FALSE,keypress,testRsp,314,[],choice-response,In time,64f821cfabb040f67b21104a,2023-09-06 02:53:02-04:00,tone1_30,5911,24,maintaskTrials
64f35663abb040f67b21100b,default,0,6ed458eddf568e8aea80f29470e56a89715adf4d60fbad8c2a6b66187c371d8c,1162.956885,FALSE,keypress,testRsp,342,[],choice-response,Out of time,64f821cfabb040f67b21104a,2023-09-06 02:53:02-04:00,add1_60,6170,25,maintaskTrials
64f35663abb040f67b21100b,default,0,6ed458eddf568e8aea80f29470e56a89715adf4d60fbad8c2a6b66187c371d8c,1162.956885,FALSE,keypress,testRsp,271,[],choice-response,Out of time,64f821cfabb040f67b21104a,2023-09-06 02:53:02-04:00,lab1_120,5841,26,maintaskTrials
64f35663abb040f67b21100b,default,0,6ed458eddf568e8aea80f29470e56a89715adf4d60fbad8c2a6b66187c371d8c,1162.956885,FALSE,keypress,testRsp,249,[],choice-response,Out of time,64f821cfabb040f67b21104a,2023-09-06 02:53:02-04:00,add1_120,5828,27,maintaskTrials
64f35663abb040f67b21100b,default,0,6ed458eddf568e8aea80f29470e56a89715adf4d60fbad8c2a6b66187c371d8c,1162.956885,FALSE,keypress,testRsp,1344,[],choice-response,In time,64f821cfabb040f67b21104a,2023-09-06 02:53:02-04:00,lab1_0,7106,28,maintaskTrials
64f35663abb040f67b21100b,default,0,6ed458eddf568e8aea80f29470e56a89715adf4d60fbad8c2a6b66187c371d8c,1162.956885,FALSE,keypress,testRsp,302,[],choice-response,Out of time,64f821cfabb040f67b21104a,2023-09-06 02:53:02-04:00,add8_0,6047,29,maintaskTrials
64f35663abb040f67b21100b,default,0,6ed458eddf568e8aea80f29470e56a89715adf4d60fbad8c2a6b66187c371d8c,1162.956885,FALSE,keypress,testRsp,810,[],choice-response,In time,64f821cfabb040f67b21104a,2023-09-06 02:53:02-04:00,tone1_0,6337,30,maintaskTrials
64f35663abb040f67b21100b,default,0,6ed458eddf568e8aea80f29470e56a89715adf4d60fbad8c2a6b66187c371d8c,1162.956885,FALSE,keypress,testRsp,2101,[],choice-response,In time,64f821cfabb040f67b21104a,2023-09-06 02:53:02-04:00,lab1_60,7677,31,maintaskTrials
64f35663abb040f67b21100b,default,0,6ed458eddf568e8aea80f29470e56a89715adf4d60fbad8c2a6b66187c371d8c,1162.956885,FALSE,keypress,testRsp,348,[],choice-response,Out of time,64f821cfabb040f67b21104a,2023-09-06 02:53:02-04:00,add8_60,6009,32,maintaskTrials
64f35663abb040f67b21100b,default,0,6ed458eddf568e8aea80f29470e56a89715adf4d60fbad8c2a6b66187c371d8c,1162.956885,FALSE,keypress,testRsp,1795,[],choice-response,In time,64f821cfabb040f67b21104a,2023-09-06 02:53:02-04:00,tone8_0,7653,33,maintaskTrials
64f35663abb040f67b21100b,default,0,6ed458eddf568e8aea80f29470e56a89715adf4d60fbad8c2a6b66187c371d8c,1162.956885,FALSE,keypress,testRsp,298,[],choice-response,In time,64f821cfabb040f67b21104a,2023-09-06 02:53:02-04:00,tone8_30,6050,34,maintaskTrials
64f35663abb040f67b21100b,default,0,6ed458eddf568e8aea80f29470e56a89715adf4d60fbad8c2a6b66187c371d8c,1162.956885,FALSE,keypress,testRsp,347,[],choice-response,In time,64f821cfabb040f67b21104a,2023-09-06 02:53:02-04:00,add1_0,5916,35,maintaskTrials
64f35663abb040f67b21100b,default,0,6ed458eddf568e8aea80f29470e56a89715adf4d60fbad8c2a6b66187c371d8c,1162.956885,FALSE,keypress,testRsp,247,[],choice-response,In time,64f821cfabb040f67b21104a,2023-09-06 02:53:02-04:00,lab1_30,6043,36,maintaskTrials
64f35663abb040f67b21100b,default,0,6ed458eddf568e8aea80f29470e56a89715adf4d60fbad8c2a6b66187c371d8c,1162.956885,FALSE,keypress,testRsp,328,[],choice-response,Out of time,64f821cfabb040f67b21104a,2023-09-06 02:53:02-04:00,add1_120,5708,37,maintaskTrials
64f35663abb040f67b21100b,default,0,6ed458eddf568e8aea80f29470e56a89715adf4d60fbad8c2a6b66187c371d8c,1162.956885,FALSE,keypress,testRsp,260,[],choice-response,In time,64f821cfabb040f67b21104a,2023-09-06 02:53:02-04:00,tone8_0,5620,38,maintaskTrials
64f35663abb040f67b21100b,default,0,6ed458eddf568e8aea80f29470e56a89715adf4d60fbad8c2a6b66187c371d8c,1162.956885,FALSE,keypress,testRsp,454,[],choice-response,In time,64f821cfabb040f67b21104a,2023-09-06 02:53:02-04:00,lab8_30,5875,39,maintaskTrials
64f35663abb040f67b21100b,default,0,6ed458eddf568e8aea80f29470e56a89715adf4d60fbad8c2a6b66187c371d8c,1162.956885,FALSE,keypress,testRsp,76,[],choice-response,In time,64f821cfabb040f67b21104a,2023-09-06 02:53:02-04:00,lab8_60,5492,40,maintaskTrials
64f35663abb040f67b21100b,default,0,6ed458eddf568e8aea80f29470e56a89715adf4d60fbad8c2a6b66187c371d8c,1162.956885,FALSE,keypress,testRsp,849,[],choice-response,Out of time,64f821cfabb040f67b21104a,2023-09-06 02:53:02-04:00,tone8_120,6250,41,maintaskTrials
64f35663abb040f67b21100b,default,0,6ed458eddf568e8aea80f29470e56a89715adf4d60fbad8c2a6b66187c371d8c,1162.956885,FALSE,keypress,testRsp,304,[],choice-response,In time,64f821cfabb040f67b21104a,2023-09-06 02:53:02-04:00,add1_0,5668,42,maintaskTrials
64f35663abb040f67b21100b,default,0,6ed458eddf568e8aea80f29470e56a89715adf4d60fbad8c2a6b66187c371d8c,1162.956885,FALSE,keypress,testRsp,291,[],choice-response,Out of time,64f821cfabb040f67b21104a,2023-09-06 02:53:02-04:00,tone1_120,5660,43,maintaskTrials
64f35663abb040f67b21100b,default,0,6ed458eddf568e8aea80f29470e56a89715adf4d60fbad8c2a6b66187c371d8c,1162.956885,FALSE,keypress,testRsp,319,[],choice-response,In time,64f821cfabb040f67b21104a,2023-09-06 02:53:02-04:00,add8_30,5681,44,maintaskTrials
64f35663abb040f67b21100b,default,0,6ed458eddf568e8aea80f29470e56a89715adf4d60fbad8c2a6b66187c371d8c,1162.956885,FALSE,keypress,testRsp,339,[],choice-response,Out of time,64f821cfabb040f67b21104a,2023-09-06 02:53:02-04:00,add8_120,5723,45,maintaskTrials
64f35663abb040f67b21100b,default,0,6ed458eddf568e8aea80f29470e56a89715adf4d60fbad8c2a6b66187c371d8c,1162.956885,FALSE,keypress,testRsp,348,[],choice-response,Out of time,64f821cfabb040f67b21104a,2023-09-06 02:53:02-04:00,tone8_60,5780,46,maintaskTrials
64f35663abb040f67b21100b,default,0,6ed458eddf568e8aea80f29470e56a89715adf4d60fbad8c2a6b66187c371d8c,1162.956885,FALSE,keypress,testRsp,1505,[],choice-response,Out of time,64f821cfabb040f67b21104a,2023-09-06 02:53:02-04:00,tone8_30,6901,47,maintaskTrials
64f35663abb040f67b21100b,default,0,6ed458eddf568e8aea80f29470e56a89715adf4d60fbad8c2a6b66187c371d8c,1162.956885,FALSE,keypress,testRsp,360,[],choice-response,In time,64f821cfabb040f67b21104a,2023-09-06 02:53:02-04:00,tone1_30,5754,48,maintaskTrials
64f35663abb040f67b21100b,default,0,6ed458eddf568e8aea80f29470e56a89715adf4d60fbad8c2a6b66187c371d8c,1162.956885,FALSE,keypress,testRsp,300,[],choice-response,Out of time,64f821cfabb040f67b21104a,2023-09-06 02:53:02-04:00,tone1_90,5657,49,maintaskTrials
64f35663abb040f67b21100b,default,0,6ed458eddf568e8aea80f29470e56a89715adf4d60fbad8c2a6b66187c371d8c,1162.956885,FALSE,keypress,testRsp,339,[],choice-response,In time,64f821cfabb040f67b21104a,2023-09-06 02:53:02-04:00,lab1_30,5717,50,maintaskTrials
64f35663abb040f67b21100b,default,0,6ed458eddf568e8aea80f29470e56a89715adf4d60fbad8c2a6b66187c371d8c,1162.956885,FALSE,keypress,testRsp,2280,[],choice-response,In time,64f821cfabb040f67b21104a,2023-09-06 02:53:02-04:00,lab1_60,7651,51,maintaskTrials
64f35663abb040f67b21100b,default,0,6ed458eddf568e8aea80f29470e56a89715adf4d60fbad8c2a6b66187c371d8c,1162.956885,FALSE,keypress,testRsp,488,[],choice-response,In time,64f821cfabb040f67b21104a,2023-09-06 02:53:02-04:00,lab8_90,5957,52,maintaskTrials
64f35663abb040f67b21100b,default,0,6ed458eddf568e8aea80f29470e56a89715adf4d60fbad8c2a6b66187c371d8c,1162.956885,FALSE,keypress,testRsp,386,[],choice-response,In time,64f821cfabb040f67b21104a,2023-09-06 02:53:02-04:00,tone1_0,5748,53,maintaskTrials
64f35663abb040f67b21100b,default,0,6ed458eddf568e8aea80f29470e56a89715adf4d60fbad8c2a6b66187c371d8c,1162.956885,FALSE,keypress,testRsp,1,[],choice-response,Out of time,64f821cfabb040f67b21104a,2023-09-06 02:53:02-04:00,add1_60,5404,54,maintaskTrials
64f35663abb040f67b21100b,default,0,6ed458eddf568e8aea80f29470e56a89715adf4d60fbad8c2a6b66187c371d8c,1162.956885,FALSE,keypress,testRsp,443,[],choice-response,Out of time,64f821cfabb040f67b21104a,2023-09-06 02:53:02-04:00,lab1_120,5804,55,maintaskTrials
64f35663abb040f67b21100b,default,0,6ed458eddf568e8aea80f29470e56a89715adf4d60fbad8c2a6b66187c371d8c,1162.956885,FALSE,keypress,testRsp,669,[],choice-response,Out of time,64f821cfabb040f67b21104a,2023-09-06 02:53:02-04:00,add1_90,6021,56,maintaskTrials
64f35663abb040f67b21100b,default,0,6ed458eddf568e8aea80f29470e56a89715adf4d60fbad8c2a6b66187c371d8c,1162.956885,FALSE,keypress,testRsp,359,[],choice-response,Out of time,64f821cfabb040f67b21104a,2023-09-06 02:53:02-04:00,tone8_90,5750,57,maintaskTrials
64f35663abb040f67b21100b,default,0,6ed458eddf568e8aea80f29470e56a89715adf4d60fbad8c2a6b66187c371d8c,1162.956885,FALSE,keypress,testRsp,305,[],choice-response,In time,64f821cfabb040f67b21104a,2023-09-06 02:53:02-04:00,add8_0,5716,58,maintaskTrials
64f35663abb040f67b21100b,default,0,6ed458eddf568e8aea80f29470e56a89715adf4d60fbad8c2a6b66187c371d8c,1162.956885,FALSE,keypress,testRsp,712,[],choice-response,In time,64f821cfabb040f67b21104a,2023-09-06 02:53:02-04:00,lab1_0,6074,59,maintaskTrials
64f35663abb040f67b21100b,default,0,6ed458eddf568e8aea80f29470e56a89715adf4d60fbad8c2a6b66187c371d8c,1162.956885,FALSE,keypress,testRsp,851,[],choice-response,Out of time,64f821cfabb040f67b21104a,2023-09-06 02:53:02-04:00,lab8_120,6231,60,maintaskTrials
64f35663abb040f67b21100b,default,0,6ed458eddf568e8aea80f29470e56a89715adf4d60fbad8c2a6b66187c371d8c,1162.956885,FALSE,keypress,testRsp,2222,[],choice-response,Out of time,64f821cfabb040f67b21104a,2023-09-06 02:53:02-04:00,lab1_90,7586,61,maintaskTrials
64f35663abb040f67b21100b,default,0,6ed458eddf568e8aea80f29470e56a89715adf4d60fbad8c2a6b66187c371d8c,1162.956885,FALSE,keypress,testRsp,219,[],choice-response,Out of time,64f821cfabb040f67b21104a,2023-09-06 02:53:02-04:00,add8_60,5601,62,maintaskTrials
64f35663abb040f67b21100b,default,0,6ed458eddf568e8aea80f29470e56a89715adf4d60fbad8c2a6b66187c371d8c,1162.956885,FALSE,keypress,testRsp,265,[],choice-response,Out of time,64f821cfabb040f67b21104a,2023-09-06 02:53:02-04:00,add8_90,5629,63,maintaskTrials
64f35663abb040f67b21100b,default,0,6ed458eddf568e8aea80f29470e56a89715adf4d60fbad8c2a6b66187c371d8c,1162.956885,FALSE,keypress,testRsp,429,[],choice-response,Out of time,64f821cfabb040f67b21104a,2023-09-06 02:53:02-04:00,lab8_0,5836,64,maintaskTrials
64f35663abb040f67b21100b,default,0,6ed458eddf568e8aea80f29470e56a89715adf4d60fbad8c2a6b66187c371d8c,1162.956885,FALSE,keypress,testRsp,8160,[],choice-response,Out of time,64f821cfabb040f67b21104a,2023-09-06 02:53:02-04:00,tone1_60,13516,65,maintaskTrials
64f35663abb040f67b21100b,default,0,6ed458eddf568e8aea80f29470e56a89715adf4d60fbad8c2a6b66187c371d8c,1162.956885,FALSE,keypress,testRsp,313,[],choice-response,In time,64f821cfabb040f67b21104a,2023-09-06 02:53:02-04:00,add1_30,5673,66,maintaskTrials
64f35663abb040f67b21100b,default,0,6ed458eddf568e8aea80f29470e56a89715adf4d60fbad8c2a6b66187c371d8c,1162.956885,FALSE,keypress,testRsp,314,[],choice-response,In time,64f821cfabb040f67b21104a,2023-09-06 02:53:02-04:00,tone8_0,5684,67,maintaskTrials
64f35663abb040f67b21100b,default,0,6ed458eddf568e8aea80f29470e56a89715adf4d60fbad8c2a6b66187c371d8c,1162.956885,FALSE,keypress,testRsp,256,[],choice-response,In time,64f821cfabb040f67b21104a,2023-09-06 02:53:02-04:00,lab8_90,5618,68,maintaskTrials
64f35663abb040f67b21100b,default,0,6ed458eddf568e8aea80f29470e56a89715adf4d60fbad8c2a6b66187c371d8c,1162.956885,FALSE,keypress,testRsp,337,[],choice-response,Out of time,64f821cfabb040f67b21104a,2023-09-06 02:53:02-04:00,lab8_0,5700,69,maintaskTrials
64f35663abb040f67b21100b,default,0,6ed458eddf568e8aea80f29470e56a89715adf4d60fbad8c2a6b66187c371d8c,1162.956885,FALSE,keypress,testRsp,163,[],choice-response,Out of time,64f821cfabb040f67b21104a,2023-09-06 02:53:02-04:00,add1_120,5538,70,maintaskTrials
64f35663abb040f67b21100b,default,0,6ed458eddf568e8aea80f29470e56a89715adf4d60fbad8c2a6b66187c371d8c,1162.956885,FALSE,keypress,testRsp,194,[],choice-response,Out of time,64f821cfabb040f67b21104a,2023-09-06 02:53:02-04:00,tone8_60,5572,71,maintaskTrials
64f35663abb040f67b21100b,default,0,6ed458eddf568e8aea80f29470e56a89715adf4d60fbad8c2a6b66187c371d8c,1162.956885,FALSE,keypress,testRsp,320,[],choice-response,Out of time,64f821cfabb040f67b21104a,2023-09-06 02:53:02-04:00,add1_90,5700,72,maintaskTrials
64f35663abb040f67b21100b,default,0,6ed458eddf568e8aea80f29470e56a89715adf4d60fbad8c2a6b66187c371d8c,1162.956885,FALSE,keypress,testRsp,308,[],choice-response,In time,64f821cfabb040f67b21104a,2023-09-06 02:53:02-04:00,add8_30,5707,73,maintaskTrials
64f35663abb040f67b21100b,default,0,6ed458eddf568e8aea80f29470e56a89715adf4d60fbad8c2a6b66187c371d8c,1162.956885,FALSE,keypress,testRsp,886,[],choice-response,Out of time,64f821cfabb040f67b21104a,2023-09-06 02:53:02-04:00,tone1_60,6244,74,maintaskTrials
64f35663abb040f67b21100b,default,0,6ed458eddf568e8aea80f29470e56a89715adf4d60fbad8c2a6b66187c371d8c,1162.956885,FALSE,keypress,testRsp,547,[],choice-response,Out of time,64f821cfabb040f67b21104a,2023-09-06 02:53:02-04:00,tone1_90,5940,75,maintaskTrials
64f35663abb040f67b21100b,default,0,6ed458eddf568e8aea80f29470e56a89715adf4d60fbad8c2a6b66187c371d8c,1162.956885,FALSE,keypress,testRsp,316,[],choice-response,In time,64f821cfabb040f67b21104a,2023-09-06 02:53:02-04:00,tone1_30,5739,76,maintaskTrials
64f35663abb040f67b21100b,default,0,6ed458eddf568e8aea80f29470e56a89715adf4d60fbad8c2a6b66187c371d8c,1162.956885,FALSE,keypress,testRsp,465,[],choice-response,Out of time,64f821cfabb040f67b21104a,2023-09-06 02:53:02-04:00,add8_90,5835,77,maintaskTrials
64f35663abb040f67b21100b,default,0,6ed458eddf568e8aea80f29470e56a89715adf4d60fbad8c2a6b66187c371d8c,1162.956885,FALSE,keypress,testRsp,825,[],choice-response,In time,64f821cfabb040f67b21104a,2023-09-06 02:53:02-04:00,lab1_30,6219,78,maintaskTrials
64f35663abb040f67b21100b,default,0,6ed458eddf568e8aea80f29470e56a89715adf4d60fbad8c2a6b66187c371d8c,1162.956885,FALSE,keypress,testRsp,574,[],choice-response,Out of time,64f821cfabb040f67b21104a,2023-09-06 02:53:02-04:00,lab1_0,5963,79,maintaskTrials
64f35663abb040f67b21100b,default,0,6ed458eddf568e8aea80f29470e56a89715adf4d60fbad8c2a6b66187c371d8c,1162.956885,FALSE,keypress,testRsp,302,[],choice-response,In time,64f821cfabb040f67b21104a,2023-09-06 02:53:02-04:00,lab1_60,5684,80,maintaskTrials
64f35663abb040f67b21100b,default,0,6ed458eddf568e8aea80f29470e56a89715adf4d60fbad8c2a6b66187c371d8c,1162.956885,FALSE,keypress,testRsp,3458,[],choice-response,Out of time,64f821cfabb040f67b21104a,2023-09-06 02:53:02-04:00,add8_60,8892,81,maintaskTrials
64f35663abb040f67b21100b,default,0,6ed458eddf568e8aea80f29470e56a89715adf4d60fbad8c2a6b66187c371d8c,1162.956885,FALSE,keypress,testRsp,542,[],choice-response,In time,64f821cfabb040f67b21104a,2023-09-06 02:53:02-04:00,lab8_120,5908,82,maintaskTrials
64f35663abb040f67b21100b,default,0,6ed458eddf568e8aea80f29470e56a89715adf4d60fbad8c2a6b66187c371d8c,1162.956885,FALSE,keypress,testRsp,347,[],choice-response,In time,64f821cfabb040f67b21104a,2023-09-06 02:53:02-04:00,add8_0,5712,83,maintaskTrials
64f35663abb040f67b21100b,default,0,6ed458eddf568e8aea80f29470e56a89715adf4d60fbad8c2a6b66187c371d8c,1162.956885,FALSE,keypress,testRsp,621,[],choice-response,In time,64f821cfabb040f67b21104a,2023-09-06 02:53:02-04:00,add1_30,5994,84,maintaskTrials
64f35663abb040f67b21100b,default,0,6ed458eddf568e8aea80f29470e56a89715adf4d60fbad8c2a6b66187c371d8c,1162.956885,FALSE,keypress,testRsp,371,[],choice-response,In time,64f821cfabb040f67b21104a,2023-09-06 02:53:02-04:00,add1_0,5787,85,maintaskTrials
64f35663abb040f67b21100b,default,0,6ed458eddf568e8aea80f29470e56a89715adf4d60fbad8c2a6b66187c371d8c,1162.956885,FALSE,keypress,testRsp,2207,[],choice-response,Out of time,64f821cfabb040f67b21104a,2023-09-06 02:53:02-04:00,add8_120,7565,86,maintaskTrials
64f35663abb040f67b21100b,default,0,6ed458eddf568e8aea80f29470e56a89715adf4d60fbad8c2a6b66187c371d8c,1162.956885,FALSE,keypress,testRsp,6542,[],choice-response,In time,64f821cfabb040f67b21104a,2023-09-06 02:53:02-04:00,lab8_30,12011,87,maintaskTrials
64f35663abb040f67b21100b,default,0,6ed458eddf568e8aea80f29470e56a89715adf4d60fbad8c2a6b66187c371d8c,1162.956885,FALSE,keypress,testRsp,554,[],choice-response,Out of time,64f821cfabb040f67b21104a,2023-09-06 02:53:02-04:00,lab1_120,5921,88,maintaskTrials
64f35663abb040f67b21100b,default,0,6ed458eddf568e8aea80f29470e56a89715adf4d60fbad8c2a6b66187c371d8c,1162.956885,FALSE,keypress,testRsp,950,[],choice-response,Out of time,64f821cfabb040f67b21104a,2023-09-06 02:53:02-04:00,tone8_120,6318,89,maintaskTrials
64f35663abb040f67b21100b,default,0,6ed458eddf568e8aea80f29470e56a89715adf4d60fbad8c2a6b66187c371d8c,1162.956885,FALSE,keypress,testRsp,2177,[],choice-response,Out of time,64f821cfabb040f67b21104a,2023-09-06 02:53:02-04:00,tone8_30,7554,90,maintaskTrials
64f35663abb040f67b21100b,default,0,6ed458eddf568e8aea80f29470e56a89715adf4d60fbad8c2a6b66187c371d8c,1162.956885,FALSE,keypress,testRsp,7080,[],choice-response,In time,64f821cfabb040f67b21104a,2023-09-06 02:53:02-04:00,tone1_0,12442,91,maintaskTrials
64f35663abb040f67b21100b,default,0,6ed458eddf568e8aea80f29470e56a89715adf4d60fbad8c2a6b66187c371d8c,1162.956885,FALSE,keypress,testRsp,794,[],choice-response,Out of time,64f821cfabb040f67b21104a,2023-09-06 02:53:02-04:00,tone1_120,6152,92,maintaskTrials
64f35663abb040f67b21100b,default,0,6ed458eddf568e8aea80f29470e56a89715adf4d60fbad8c2a6b66187c371d8c,1162.956885,FALSE,keypress,testRsp,2389,[],choice-response,In time,64f821cfabb040f67b21104a,2023-09-06 02:53:02-04:00,tone8_90,7751,93,maintaskTrials
64f35663abb040f67b21100b,default,0,6ed458eddf568e8aea80f29470e56a89715adf4d60fbad8c2a6b66187c371d8c,1162.956885,FALSE,keypress,testRsp,8608,[],choice-response,In time,64f821cfabb040f67b21104a,2023-09-06 02:53:02-04:00,lab8_60,14028,94,maintaskTrials
64f35663abb040f67b21100b,default,0,6ed458eddf568e8aea80f29470e56a89715adf4d60fbad8c2a6b66187c371d8c,1162.956885,FALSE,keypress,testRsp,539,[],choice-response,Out of time,64f821cfabb040f67b21104a,2023-09-06 02:53:02-04:00,add1_60,5912,95,maintaskTrials
64f35663abb040f67b21100b,default,0,6ed458eddf568e8aea80f29470e56a89715adf4d60fbad8c2a6b66187c371d8c,1162.956885,FALSE,keypress,testRsp,687,[],choice-response,Out of time,64f821cfabb040f67b21104a,2023-09-06 02:53:02-04:00,lab1_90,6064,96,maintaskTrials
64f35663abb040f67b21100b,default,0,6ed458eddf568e8aea80f29470e56a89715adf4d60fbad8c2a6b66187c371d8c,1162.956885,FALSE,keypress,testRsp,381,[],choice-response,In time,64f821cfabb040f67b21104a,2023-09-06 02:53:02-04:00,tone8_0,5745,97,maintaskTrials
64f35663abb040f67b21100b,default,0,6ed458eddf568e8aea80f29470e56a89715adf4d60fbad8c2a6b66187c371d8c,1162.956885,FALSE,keypress,testRsp,374,[],choice-response,Out of time,64f821cfabb040f67b21104a,2023-09-06 02:53:02-04:00,tone1_90,5730,98,maintaskTrials
64f35663abb040f67b21100b,default,0,6ed458eddf568e8aea80f29470e56a89715adf4d60fbad8c2a6b66187c371d8c,1162.956885,FALSE,keypress,testRsp,1704,[],choice-response,In time,64f821cfabb040f67b21104a,2023-09-06 02:53:02-04:00,lab1_90,7084,99,maintaskTrials
64f35663abb040f67b21100b,default,0,6ed458eddf568e8aea80f29470e56a89715adf4d60fbad8c2a6b66187c371d8c,1162.956885,FALSE,keypress,testRsp,880,[],choice-response,In time,64f821cfabb040f67b21104a,2023-09-06 02:53:02-04:00,add1_0,6281,100,maintaskTrials
64f35663abb040f67b21100b,default,0,6ed458eddf568e8aea80f29470e56a89715adf4d60fbad8c2a6b66187c371d8c,1162.956885,FALSE,keypress,testRsp,534,[],choice-response,In time,64f821cfabb040f67b21104a,2023-09-06 02:53:02-04:00,add1_30,5953,101,maintaskTrials
64f35663abb040f67b21100b,default,0,6ed458eddf568e8aea80f29470e56a89715adf4d60fbad8c2a6b66187c371d8c,1162.956885,FALSE,keypress,testRsp,1174,[],choice-response,Out of time,64f821cfabb040f67b21104a,2023-09-06 02:53:02-04:00,add8_60,6568,102,maintaskTrials
64f35663abb040f67b21100b,default,0,6ed458eddf568e8aea80f29470e56a89715adf4d60fbad8c2a6b66187c371d8c,1162.956885,FALSE,keypress,testRsp,1246,[],choice-response,In time,64f821cfabb040f67b21104a,2023-09-06 02:53:02-04:00,add8_0,6624,103,maintaskTrials
64f35663abb040f67b21100b,default,0,6ed458eddf568e8aea80f29470e56a89715adf4d60fbad8c2a6b66187c371d8c,1162.956885,FALSE,keypress,testRsp,3262,[],choice-response,Out of time,64f821cfabb040f67b21104a,2023-09-06 02:53:02-04:00,tone1_30,8623,104,maintaskTrials
64f35663abb040f67b21100b,default,0,6ed458eddf568e8aea80f29470e56a89715adf4d60fbad8c2a6b66187c371d8c,1162.956885,FALSE,keypress,testRsp,2027,[],choice-response,Out of time,64f821cfabb040f67b21104a,2023-09-06 02:53:02-04:00,add8_30,7418,105,maintaskTrials
64f35663abb040f67b21100b,default,0,6ed458eddf568e8aea80f29470e56a89715adf4d60fbad8c2a6b66187c371d8c,1162.956885,FALSE,keypress,testRsp,315,[],choice-response,Out of time,64f821cfabb040f67b21104a,2023-09-06 02:53:02-04:00,tone8_90,5744,106,maintaskTrials
64f35663abb040f67b21100b,default,0,6ed458eddf568e8aea80f29470e56a89715adf4d60fbad8c2a6b66187c371d8c,1162.956885,FALSE,keypress,testRsp,1283,[],choice-response,Out of time,64f821cfabb040f67b21104a,2023-09-06 02:53:02-04:00,add8_120,6703,107,maintaskTrials
64f35663abb040f67b21100b,default,0,6ed458eddf568e8aea80f29470e56a89715adf4d60fbad8c2a6b66187c371d8c,1162.956885,FALSE,keypress,testRsp,406,[],choice-response,Out of time,64f821cfabb040f67b21104a,2023-09-06 02:53:02-04:00,add1_90,5826,108,maintaskTrials
64f35663abb040f67b21100b,default,0,6ed458eddf568e8aea80f29470e56a89715adf4d60fbad8c2a6b66187c371d8c,1162.956885,FALSE,keypress,testRsp,332,[],choice-response,Out of time,64f821cfabb040f67b21104a,2023-09-06 02:53:02-04:00,tone1_120,5700,109,maintaskTrials
64f35663abb040f67b21100b,default,0,6ed458eddf568e8aea80f29470e56a89715adf4d60fbad8c2a6b66187c371d8c,1162.956885,FALSE,keypress,testRsp,1826,[],choice-response,Out of time,64f821cfabb040f67b21104a,2023-09-06 02:53:02-04:00,add1_120,7178,110,maintaskTrials
64f35663abb040f67b21100b,default,0,6ed458eddf568e8aea80f29470e56a89715adf4d60fbad8c2a6b66187c371d8c,1162.956885,FALSE,keypress,testRsp,1499,[],choice-response,Out of time,64f821cfabb040f67b21104a,2023-09-06 02:53:02-04:00,lab8_0,6915,111,maintaskTrials
64f35663abb040f67b21100b,default,0,6ed458eddf568e8aea80f29470e56a89715adf4d60fbad8c2a6b66187c371d8c,1162.956885,FALSE,keypress,testRsp,447,[],choice-response,Out of time,64f821cfabb040f67b21104a,2023-09-06 02:53:02-04:00,lab1_120,5836,112,maintaskTrials
64f35663abb040f67b21100b,default,0,6ed458eddf568e8aea80f29470e56a89715adf4d60fbad8c2a6b66187c371d8c,1162.956885,FALSE,keypress,testRsp,1986,[],choice-response,Out of time,64f821cfabb040f67b21104a,2023-09-06 02:53:02-04:00,lab1_30,7363,113,maintaskTrials
64f35663abb040f67b21100b,default,0,6ed458eddf568e8aea80f29470e56a89715adf4d60fbad8c2a6b66187c371d8c,1162.956885,FALSE,keypress,testRsp,3,[],choice-response,In time,64f821cfabb040f67b21104a,2023-09-06 02:53:02-04:00,tone1_0,5381,114,maintaskTrials
64f35663abb040f67b21100b,default,0,6ed458eddf568e8aea80f29470e56a89715adf4d60fbad8c2a6b66187c371d8c,1162.956885,FALSE,keypress,testRsp,139,[],choice-response,Out of time,64f821cfabb040f67b21104a,2023-09-06 02:53:02-04:00,tone8_120,5512,115,maintaskTrials
64f35663abb040f67b21100b,default,0,6ed458eddf568e8aea80f29470e56a89715adf4d60fbad8c2a6b66187c371d8c,1162.956885,FALSE,keypress,testRsp,1331,[],choice-response,In time,64f821cfabb040f67b21104a,2023-09-06 02:53:02-04:00,lab8_30,6700,116,maintaskTrials
64f35663abb040f67b21100b,default,0,6ed458eddf568e8aea80f29470e56a89715adf4d60fbad8c2a6b66187c371d8c,1162.956885,FALSE,keypress,testRsp,336,[],choice-response,In time,64f821cfabb040f67b21104a,2023-09-06 02:53:02-04:00,lab1_60,5691,117,maintaskTrials
64f35663abb040f67b21100b,default,0,6ed458eddf568e8aea80f29470e56a89715adf4d60fbad8c2a6b66187c371d8c,1162.956885,FALSE,keypress,testRsp,762,[],choice-response,In time,64f821cfabb040f67b21104a,2023-09-06 02:53:02-04:00,lab1_0,6148,118,maintaskTrials
64f35663abb040f67b21100b,default,0,6ed458eddf568e8aea80f29470e56a89715adf4d60fbad8c2a6b66187c371d8c,1162.956885,FALSE,keypress,testRsp,286,[],choice-response,Out of time,64f821cfabb040f67b21104a,2023-09-06 02:53:02-04:00,lab8_120,5658,119,maintaskTrials
64f35663abb040f67b21100b,default,0,6ed458eddf568e8aea80f29470e56a89715adf4d60fbad8c2a6b66187c371d8c,1162.956885,FALSE,keypress,testRsp,789,[],choice-response,Out of time,64f821cfabb040f67b21104a,2023-09-06 02:53:02-04:00,tone1_60,6153,120,maintaskTrials
64f35663abb040f67b21100b,default,0,6ed458eddf568e8aea80f29470e56a89715adf4d60fbad8c2a6b66187c371d8c,1162.956885,FALSE,keypress,testRsp,512,[],choice-response,In time,64f821cfabb040f67b21104a,2023-09-06 02:53:02-04:00,tone8_30,5861,121,maintaskTrials
64f35663abb040f67b21100b,default,0,6ed458eddf568e8aea80f29470e56a89715adf4d60fbad8c2a6b66187c371d8c,1162.956885,FALSE,keypress,testRsp,295,[],choice-response,In time,64f821cfabb040f67b21104a,2023-09-06 02:53:02-04:00,lab8_90,5723,122,maintaskTrials
64f35663abb040f67b21100b,default,0,6ed458eddf568e8aea80f29470e56a89715adf4d60fbad8c2a6b66187c371d8c,1162.956885,FALSE,keypress,testRsp,444,[],choice-response,Out of time,64f821cfabb040f67b21104a,2023-09-06 02:53:02-04:00,add8_90,5878,123,maintaskTrials
64f35663abb040f67b21100b,default,0,6ed458eddf568e8aea80f29470e56a89715adf4d60fbad8c2a6b66187c371d8c,1162.956885,FALSE,keypress,testRsp,51,[],choice-response,In time,64f821cfabb040f67b21104a,2023-09-06 02:53:02-04:00,lab8_60,5436,124,maintaskTrials
64f35663abb040f67b21100b,default,0,6ed458eddf568e8aea80f29470e56a89715adf4d60fbad8c2a6b66187c371d8c,1162.956885,FALSE,keypress,testRsp,936,[],choice-response,Out of time,64f821cfabb040f67b21104a,2023-09-06 02:53:02-04:00,tone8_60,6324,125,maintaskTrials
64f35663abb040f67b21100b,default,0,6ed458eddf568e8aea80f29470e56a89715adf4d60fbad8c2a6b66187c371d8c,1162.956885,FALSE,keypress,testRsp,499,[],choice-response,Out of time,64f821cfabb040f67b21104a,2023-09-06 02:53:02-04:00,add1_60,5881,126,maintaskTrials
64f35663abb040f67b21100b,default,0,6ed458eddf568e8aea80f29470e56a89715adf4d60fbad8c2a6b66187c371d8c,1162.956885,FALSE,keypress,testRsp,832,[],choice-response,In time,64f821cfabb040f67b21104a,2023-09-06 02:53:02-04:00,tone8_0,6250,127,maintaskTrials
64f35663abb040f67b21100b,default,0,6ed458eddf568e8aea80f29470e56a89715adf4d60fbad8c2a6b66187c371d8c,1162.956885,FALSE,keypress,testRsp,7124,[],choice-response,Out of time,64f821cfabb040f67b21104a,2023-09-06 02:53:02-04:00,lab8_90,12513,128,maintaskTrials
64f35663abb040f67b21100b,default,0,6ed458eddf568e8aea80f29470e56a89715adf4d60fbad8c2a6b66187c371d8c,1162.956885,FALSE,keypress,testRsp,402,[],choice-response,Out of time,64f821cfabb040f67b21104a,2023-09-06 02:53:02-04:00,tone1_90,5771,129,maintaskTrials
64f35663abb040f67b21100b,default,0,6ed458eddf568e8aea80f29470e56a89715adf4d60fbad8c2a6b66187c371d8c,1162.956885,FALSE,keypress,testRsp,262,[],choice-response,Out of time,64f821cfabb040f67b21104a,2023-09-06 02:53:02-04:00,add1_90,5659,130,maintaskTrials
64f35663abb040f67b21100b,default,0,6ed458eddf568e8aea80f29470e56a89715adf4d60fbad8c2a6b66187c371d8c,1162.956885,FALSE,keypress,testRsp,1275,[],choice-response,Out of time,64f821cfabb040f67b21104a,2023-09-06 02:53:02-04:00,add8_90,6722,131,maintaskTrials
64f35663abb040f67b21100b,default,0,6ed458eddf568e8aea80f29470e56a89715adf4d60fbad8c2a6b66187c371d8c,1162.956885,FALSE,keypress,testRsp,109,[],choice-response,Out of time,64f821cfabb040f67b21104a,2023-09-06 02:53:02-04:00,add8_60,5498,132,maintaskTrials
64f35663abb040f67b21100b,default,0,6ed458eddf568e8aea80f29470e56a89715adf4d60fbad8c2a6b66187c371d8c,1162.956885,FALSE,keypress,testRsp,3231,[],choice-response,In time,64f821cfabb040f67b21104a,2023-09-06 02:53:02-04:00,add1_30,8590,133,maintaskTrials
64f35663abb040f67b21100b,default,0,6ed458eddf568e8aea80f29470e56a89715adf4d60fbad8c2a6b66187c371d8c,1162.956885,FALSE,keypress,testRsp,4150,[],choice-response,Out of time,64f821cfabb040f67b21104a,2023-09-06 02:53:02-04:00,lab8_0,9548,134,maintaskTrials
64f35663abb040f67b21100b,default,0,6ed458eddf568e8aea80f29470e56a89715adf4d60fbad8c2a6b66187c371d8c,1162.956885,FALSE,keypress,testRsp,415,[],choice-response,In time,64f821cfabb040f67b21104a,2023-09-06 02:53:02-04:00,tone1_30,5779,135,maintaskTrials
64f35663abb040f67b21100b,default,0,6ed458eddf568e8aea80f29470e56a89715adf4d60fbad8c2a6b66187c371d8c,1162.956885,FALSE,keypress,testRsp,422,[],choice-response,In time,64f821cfabb040f67b21104a,2023-09-06 02:53:02-04:00,add8_30,5793,136,maintaskTrials
64f35663abb040f67b21100b,default,0,6ed458eddf568e8aea80f29470e56a89715adf4d60fbad8c2a6b66187c371d8c,1162.956885,FALSE,keypress,testRsp,1107,[],choice-response,Out of time,64f821cfabb040f67b21104a,2023-09-06 02:53:02-04:00,lab1_60,6470,137,maintaskTrials
64f35663abb040f67b21100b,default,0,6ed458eddf568e8aea80f29470e56a89715adf4d60fbad8c2a6b66187c371d8c,1162.956885,FALSE,keypress,testRsp,995,[],choice-response,Out of time,64f821cfabb040f67b21104a,2023-09-06 02:53:02-04:00,add1_120,6362,138,maintaskTrials
64f35663abb040f67b21100b,default,0,6ed458eddf568e8aea80f29470e56a89715adf4d60fbad8c2a6b66187c371d8c,1162.956885,FALSE,keypress,testRsp,973,[],choice-response,Out of time,64f821cfabb040f67b21104a,2023-09-06 02:53:02-04:00,tone8_60,6398,139,maintaskTrials
64f35663abb040f67b21100b,default,0,6ed458eddf568e8aea80f29470e56a89715adf4d60fbad8c2a6b66187c371d8c,1162.956885,FALSE,keypress,testRsp,129,[],choice-response,Out of time,64f821cfabb040f67b21104a,2023-09-06 02:53:02-04:00,tone8_120,5523,140,maintaskTrials
64f35663abb040f67b21100b,default,0,6ed458eddf568e8aea80f29470e56a89715adf4d60fbad8c2a6b66187c371d8c,1162.956885,FALSE,keypress,testRsp,1792,[],choice-response,In time,64f821cfabb040f67b21104a,2023-09-06 02:53:02-04:00,add1_0,7181,141,maintaskTrials
64f35663abb040f67b21100b,default,0,6ed458eddf568e8aea80f29470e56a89715adf4d60fbad8c2a6b66187c371d8c,1162.956885,FALSE,keypress,testRsp,338,[],choice-response,In time,64f821cfabb040f67b21104a,2023-09-06 02:53:02-04:00,lab8_30,5730,142,maintaskTrials
64f35663abb040f67b21100b,default,0,6ed458eddf568e8aea80f29470e56a89715adf4d60fbad8c2a6b66187c371d8c,1162.956885,FALSE,keypress,testRsp,2272,[],choice-response,In time,64f821cfabb040f67b21104a,2023-09-06 02:53:02-04:00,add8_0,7636,143,maintaskTrials
64f35663abb040f67b21100b,default,0,6ed458eddf568e8aea80f29470e56a89715adf4d60fbad8c2a6b66187c371d8c,1162.956885,FALSE,keypress,testRsp,316,[],choice-response,Out of time,64f821cfabb040f67b21104a,2023-09-06 02:53:02-04:00,lab8_120,5732,144,maintaskTrials
64f35663abb040f67b21100b,default,0,6ed458eddf568e8aea80f29470e56a89715adf4d60fbad8c2a6b66187c371d8c,1162.956885,FALSE,keypress,testRsp,1713,[],choice-response,In time,64f821cfabb040f67b21104a,2023-09-06 02:53:02-04:00,tone1_0,7074,145,maintaskTrials
64f35663abb040f67b21100b,default,0,6ed458eddf568e8aea80f29470e56a89715adf4d60fbad8c2a6b66187c371d8c,1162.956885,FALSE,keypress,testRsp,378,[],choice-response,Out of time,64f821cfabb040f67b21104a,2023-09-06 02:53:02-04:00,lab1_90,5787,146,maintaskTrials
64f35663abb040f67b21100b,default,0,6ed458eddf568e8aea80f29470e56a89715adf4d60fbad8c2a6b66187c371d8c,1162.956885,FALSE,keypress,testRsp,1524,[],choice-response,Out of time,64f821cfabb040f67b21104a,2023-09-06 02:53:02-04:00,tone8_90,6917,147,maintaskTrials
64f35663abb040f67b21100b,default,0,6ed458eddf568e8aea80f29470e56a89715adf4d60fbad8c2a6b66187c371d8c,1162.956885,FALSE,keypress,testRsp,383,[],choice-response,In time,64f821cfabb040f67b21104a,2023-09-06 02:53:02-04:00,lab1_30,5765,148,maintaskTrials
64f35663abb040f67b21100b,default,0,6ed458eddf568e8aea80f29470e56a89715adf4d60fbad8c2a6b66187c371d8c,1162.956885,FALSE,keypress,testRsp,857,[],choice-response,Out of time,64f821cfabb040f67b21104a,2023-09-06 02:53:02-04:00,lab1_0,6219,149,maintaskTrials
64f35663abb040f67b21100b,default,0,6ed458eddf568e8aea80f29470e56a89715adf4d60fbad8c2a6b66187c371d8c,1162.956885,FALSE,keypress,testRsp,256,[],choice-response,Out of time,64f821cfabb040f67b21104a,2023-09-06 02:53:02-04:00,tone1_120,5619,150,maintaskTrials
64f35663abb040f67b21100b,default,0,6ed458eddf568e8aea80f29470e56a89715adf4d60fbad8c2a6b66187c371d8c,1162.956885,FALSE,keypress,testRsp,371,[],choice-response,In time,64f821cfabb040f67b21104a,2023-09-06 02:53:02-04:00,lab8_60,5740,151,maintaskTrials
64f35663abb040f67b21100b,default,0,6ed458eddf568e8aea80f29470e56a89715adf4d60fbad8c2a6b66187c371d8c,1162.956885,FALSE,keypress,testRsp,4173,[],choice-response,Out of time,64f821cfabb040f67b21104a,2023-09-06 02:53:02-04:00,lab1_120,9566,152,maintaskTrials
64f35663abb040f67b21100b,default,0,6ed458eddf568e8aea80f29470e56a89715adf4d60fbad8c2a6b66187c371d8c,1162.956885,FALSE,keypress,testRsp,337,[],choice-response,Out of time,64f821cfabb040f67b21104a,2023-09-06 02:53:02-04:00,add1_60,5702,153,maintaskTrials
64f35663abb040f67b21100b,default,0,6ed458eddf568e8aea80f29470e56a89715adf4d60fbad8c2a6b66187c371d8c,1162.956885,FALSE,keypress,testRsp,333,[],choice-response,Out of time,64f821cfabb040f67b21104a,2023-09-06 02:53:02-04:00,add8_120,5710,154,maintaskTrials
64f35663abb040f67b21100b,default,0,6ed458eddf568e8aea80f29470e56a89715adf4d60fbad8c2a6b66187c371d8c,1162.956885,FALSE,keypress,testRsp,1182,[],choice-response,Out of time,64f821cfabb040f67b21104a,2023-09-06 02:53:02-04:00,tone8_30,6546,155,maintaskTrials
64f35663abb040f67b21100b,default,0,6ed458eddf568e8aea80f29470e56a89715adf4d60fbad8c2a6b66187c371d8c,1162.956885,FALSE,keypress,testRsp,368,[],choice-response,Out of time,64f821cfabb040f67b21104a,2023-09-06 02:53:02-04:00,tone1_60,5723,156,maintaskTrials
64f35663abb040f67b21100b,default,0,2ab1f3c00a463a452d042a457c55214abd7f82feac1b545f6dcc94d6affdb2c1,1035.4209,TRUE,keypress,exampleRsp_tone,1023,['Out of time'],choice-response,Out of time,64ff5d15220cf18479301572,2023-09-11 14:31:47-04:00,tone1_150,9758,1,example_tone
64f35663abb040f67b21100b,default,0,2ab1f3c00a463a452d042a457c55214abd7f82feac1b545f6dcc94d6affdb2c1,1035.4209,TRUE,keypress,exampleRsp_lab,356,['Out of time'],choice-response,Out of time,64ff5d15220cf18479301572,2023-09-11 14:31:47-04:00,add8_150,8609,2,example_lab
64f35663abb040f67b21100b,default,0,2ab1f3c00a463a452d042a457c55214abd7f82feac1b545f6dcc94d6affdb2c1,1035.4209,TRUE,keypress,exampleRsp_lab,158,['Out of time'],choice-response,Out of time,64ff5d15220cf18479301572,2023-09-11 14:31:47-04:00,add1_150,8685,3,example_lab
64f35663abb040f67b21100b,default,0,2ab1f3c00a463a452d042a457c55214abd7f82feac1b545f6dcc94d6affdb2c1,1035.4209,TRUE,keypress,exampleRsp_lab,475,['Out of time'],choice-response,Out of time,64ff5d15220cf18479301572,2023-09-11 14:31:47-04:00,lab8_150,9300,4,example_lab
64f35663abb040f67b21100b,default,0,2ab1f3c00a463a452d042a457c55214abd7f82feac1b545f6dcc94d6affdb2c1,1035.4209,TRUE,keypress,exampleRsp_lab,1003,['Out of time'],choice-response,Out of time,64ff5d15220cf18479301572,2023-09-11 14:31:47-04:00,lab1_150,9297,5,example_lab
64f35663abb040f67b21100b,default,0,2ab1f3c00a463a452d042a457c55214abd7f82feac1b545f6dcc94d6affdb2c1,1035.4209,TRUE,keypress,exampleRsp_tone,2439,['Out of time'],choice-response,Out of time,64ff5d15220cf18479301572,2023-09-11 14:31:47-04:00,tone8_150,11127,6,example_tone
64f35663abb040f67b21100b,default,0,2ab1f3c00a463a452d042a457c55214abd7f82feac1b545f6dcc94d6affdb2c1,1035.4209,FALSE,keypress,testRsp,643,[],choice-response,In time,64ff5d15220cf18479301572,2023-09-11 14:31:47-04:00,add1_30,6556,7,maintaskTrials
64f35663abb040f67b21100b,default,0,2ab1f3c00a463a452d042a457c55214abd7f82feac1b545f6dcc94d6affdb2c1,1035.4209,FALSE,keypress,testRsp,245,[],choice-response,Out of time,64ff5d15220cf18479301572,2023-09-11 14:31:47-04:00,tone1_120,6059,8,maintaskTrials
64f35663abb040f67b21100b,default,0,2ab1f3c00a463a452d042a457c55214abd7f82feac1b545f6dcc94d6affdb2c1,1035.4209,FALSE,keypress,testRsp,556,[],choice-response,In time,64ff5d15220cf18479301572,2023-09-11 14:31:47-04:00,add8_60,6451,9,maintaskTrials
64f35663abb040f67b21100b,default,0,2ab1f3c00a463a452d042a457c55214abd7f82feac1b545f6dcc94d6affdb2c1,1035.4209,FALSE,keypress,testRsp,274,[],choice-response,In time,64ff5d15220cf18479301572,2023-09-11 14:31:47-04:00,lab1_30,6057,10,maintaskTrials
64f35663abb040f67b21100b,default,0,2ab1f3c00a463a452d042a457c55214abd7f82feac1b545f6dcc94d6affdb2c1,1035.4209,FALSE,keypress,testRsp,608,[],choice-response,Out of time,64ff5d15220cf18479301572,2023-09-11 14:31:47-04:00,tone1_0,6216,11,maintaskTrials
64f35663abb040f67b21100b,default,0,2ab1f3c00a463a452d042a457c55214abd7f82feac1b545f6dcc94d6affdb2c1,1035.4209,FALSE,keypress,testRsp,330,[],choice-response,Out of time,64ff5d15220cf18479301572,2023-09-11 14:31:47-04:00,add1_120,6073,12,maintaskTrials
64f35663abb040f67b21100b,default,0,2ab1f3c00a463a452d042a457c55214abd7f82feac1b545f6dcc94d6affdb2c1,1035.4209,FALSE,keypress,testRsp,2465,[],choice-response,Out of time,64ff5d15220cf18479301572,2023-09-11 14:31:47-04:00,add8_0,8109,13,maintaskTrials
64f35663abb040f67b21100b,default,0,2ab1f3c00a463a452d042a457c55214abd7f82feac1b545f6dcc94d6affdb2c1,1035.4209,FALSE,keypress,testRsp,632,[],choice-response,In time,64ff5d15220cf18479301572,2023-09-11 14:31:47-04:00,lab1_120,6308,14,maintaskTrials
64f35663abb040f67b21100b,default,0,2ab1f3c00a463a452d042a457c55214abd7f82feac1b545f6dcc94d6affdb2c1,1035.4209,FALSE,keypress,testRsp,2223,[],choice-response,In time,64ff5d15220cf18479301572,2023-09-11 14:31:47-04:00,add1_60,8152,15,maintaskTrials
64f35663abb040f67b21100b,default,0,2ab1f3c00a463a452d042a457c55214abd7f82feac1b545f6dcc94d6affdb2c1,1035.4209,FALSE,keypress,testRsp,432,[],choice-response,In time,64ff5d15220cf18479301572,2023-09-11 14:31:47-04:00,add8_30,6409,16,maintaskTrials
64f35663abb040f67b21100b,default,0,2ab1f3c00a463a452d042a457c55214abd7f82feac1b545f6dcc94d6affdb2c1,1035.4209,FALSE,keypress,testRsp,258,[],choice-response,Out of time,64ff5d15220cf18479301572,2023-09-11 14:31:47-04:00,add8_120,6476,17,maintaskTrials
64f35663abb040f67b21100b,default,0,2ab1f3c00a463a452d042a457c55214abd7f82feac1b545f6dcc94d6affdb2c1,1035.4209,FALSE,keypress,testRsp,25,[],choice-response,In time,64ff5d15220cf18479301572,2023-09-11 14:31:47-04:00,add1_0,5707,18,maintaskTrials
64f35663abb040f67b21100b,default,0,2ab1f3c00a463a452d042a457c55214abd7f82feac1b545f6dcc94d6affdb2c1,1035.4209,FALSE,keypress,testRsp,1133,[],choice-response,In time,64ff5d15220cf18479301572,2023-09-11 14:31:47-04:00,lab8_90,6905,19,maintaskTrials
64f35663abb040f67b21100b,default,0,2ab1f3c00a463a452d042a457c55214abd7f82feac1b545f6dcc94d6affdb2c1,1035.4209,FALSE,keypress,testRsp,268,[],choice-response,Out of time,64ff5d15220cf18479301572,2023-09-11 14:31:47-04:00,tone1_90,5917,20,maintaskTrials
64f35663abb040f67b21100b,default,0,2ab1f3c00a463a452d042a457c55214abd7f82feac1b545f6dcc94d6affdb2c1,1035.4209,FALSE,keypress,testRsp,33,[],choice-response,In time,64ff5d15220cf18479301572,2023-09-11 14:31:47-04:00,lab8_30,5645,21,maintaskTrials
64f35663abb040f67b21100b,default,0,2ab1f3c00a463a452d042a457c55214abd7f82feac1b545f6dcc94d6affdb2c1,1035.4209,FALSE,keypress,testRsp,245,[],choice-response,In time,64ff5d15220cf18479301572,2023-09-11 14:31:47-04:00,tone8_90,5978,22,maintaskTrials
64f35663abb040f67b21100b,default,0,2ab1f3c00a463a452d042a457c55214abd7f82feac1b545f6dcc94d6affdb2c1,1035.4209,FALSE,keypress,testRsp,164,[],choice-response,In time,64ff5d15220cf18479301572,2023-09-11 14:31:47-04:00,add8_90,5813,23,maintaskTrials
64f35663abb040f67b21100b,default,0,2ab1f3c00a463a452d042a457c55214abd7f82feac1b545f6dcc94d6affdb2c1,1035.4209,FALSE,keypress,testRsp,100,[],choice-response,Out of time,64ff5d15220cf18479301572,2023-09-11 14:31:47-04:00,add1_90,5987,24,maintaskTrials
64f35663abb040f67b21100b,default,0,2ab1f3c00a463a452d042a457c55214abd7f82feac1b545f6dcc94d6affdb2c1,1035.4209,FALSE,keypress,testRsp,298,[],choice-response,Out of time,64ff5d15220cf18479301572,2023-09-11 14:31:47-04:00,tone8_120,6327,25,maintaskTrials
64f35663abb040f67b21100b,default,0,2ab1f3c00a463a452d042a457c55214abd7f82feac1b545f6dcc94d6affdb2c1,1035.4209,FALSE,keypress,testRsp,303,[],choice-response,Out of time,64ff5d15220cf18479301572,2023-09-11 14:31:47-04:00,tone8_0,5975,26,maintaskTrials
64f35663abb040f67b21100b,default,0,2ab1f3c00a463a452d042a457c55214abd7f82feac1b545f6dcc94d6affdb2c1,1035.4209,FALSE,keypress,testRsp,111,[],choice-response,In time,64ff5d15220cf18479301572,2023-09-11 14:31:47-04:00,tone1_30,5743,27,maintaskTrials
64f35663abb040f67b21100b,default,0,2ab1f3c00a463a452d042a457c55214abd7f82feac1b545f6dcc94d6affdb2c1,1035.4209,FALSE,keypress,testRsp,9,[],choice-response,In time,64ff5d15220cf18479301572,2023-09-11 14:31:47-04:00,tone1_60,6127,28,maintaskTrials
64f35663abb040f67b21100b,default,0,2ab1f3c00a463a452d042a457c55214abd7f82feac1b545f6dcc94d6affdb2c1,1035.4209,FALSE,keypress,testRsp,98,[],choice-response,In time,64ff5d15220cf18479301572,2023-09-11 14:31:47-04:00,lab8_60,6066,29,maintaskTrials
64f35663abb040f67b21100b,default,0,2ab1f3c00a463a452d042a457c55214abd7f82feac1b545f6dcc94d6affdb2c1,1035.4209,FALSE,keypress,testRsp,255,[],choice-response,In time,64ff5d15220cf18479301572,2023-09-11 14:31:47-04:00,lab1_90,6060,30,maintaskTrials
64f35663abb040f67b21100b,default,0,2ab1f3c00a463a452d042a457c55214abd7f82feac1b545f6dcc94d6affdb2c1,1035.4209,FALSE,keypress,testRsp,82,[],choice-response,Out of time,64ff5d15220cf18479301572,2023-09-11 14:31:47-04:00,lab8_0,5699,31,maintaskTrials
64f35663abb040f67b21100b,default,0,2ab1f3c00a463a452d042a457c55214abd7f82feac1b545f6dcc94d6affdb2c1,1035.4209,FALSE,keypress,testRsp,615,[],choice-response,In time,64ff5d15220cf18479301572,2023-09-11 14:31:47-04:00,tone8_60,6235,32,maintaskTrials
64f35663abb040f67b21100b,default,0,2ab1f3c00a463a452d042a457c55214abd7f82feac1b545f6dcc94d6affdb2c1,1035.4209,FALSE,keypress,testRsp,138,[],choice-response,In time,64ff5d15220cf18479301572,2023-09-11 14:31:47-04:00,lab1_0,6054,33,maintaskTrials
64f35663abb040f67b21100b,default,0,2ab1f3c00a463a452d042a457c55214abd7f82feac1b545f6dcc94d6affdb2c1,1035.4209,FALSE,keypress,testRsp,989,[],choice-response,In time,64ff5d15220cf18479301572,2023-09-11 14:31:47-04:00,tone8_30,6672,34,maintaskTrials
64f35663abb040f67b21100b,default,0,2ab1f3c00a463a452d042a457c55214abd7f82feac1b545f6dcc94d6affdb2c1,1035.4209,FALSE,keypress,testRsp,1249,[],choice-response,In time,64ff5d15220cf18479301572,2023-09-11 14:31:47-04:00,lab1_60,7047,35,maintaskTrials
64f35663abb040f67b21100b,default,0,2ab1f3c00a463a452d042a457c55214abd7f82feac1b545f6dcc94d6affdb2c1,1035.4209,FALSE,keypress,testRsp,331,[],choice-response,In time,64ff5d15220cf18479301572,2023-09-11 14:31:47-04:00,lab8_120,6000,36,maintaskTrials
64f35663abb040f67b21100b,default,0,2ab1f3c00a463a452d042a457c55214abd7f82feac1b545f6dcc94d6affdb2c1,1035.4209,FALSE,keypress,testRsp,130,[],choice-response,Out of time,64ff5d15220cf18479301572,2023-09-11 14:31:47-04:00,lab8_120,5723,37,maintaskTrials
64f35663abb040f67b21100b,default,0,2ab1f3c00a463a452d042a457c55214abd7f82feac1b545f6dcc94d6affdb2c1,1035.4209,FALSE,keypress,testRsp,51,[],choice-response,In time,64ff5d15220cf18479301572,2023-09-11 14:31:47-04:00,add8_0,5651,38,maintaskTrials
64f35663abb040f67b21100b,default,0,2ab1f3c00a463a452d042a457c55214abd7f82feac1b545f6dcc94d6affdb2c1,1035.4209,FALSE,keypress,testRsp,2229,[],choice-response,In time,64ff5d15220cf18479301572,2023-09-11 14:31:47-04:00,add1_60,7825,39,maintaskTrials
64f35663abb040f67b21100b,default,0,2ab1f3c00a463a452d042a457c55214abd7f82feac1b545f6dcc94d6affdb2c1,1035.4209,FALSE,keypress,testRsp,72,[],choice-response,Out of time,64ff5d15220cf18479301572,2023-09-11 14:31:47-04:00,lab8_0,5671,40,maintaskTrials
64f35663abb040f67b21100b,default,0,2ab1f3c00a463a452d042a457c55214abd7f82feac1b545f6dcc94d6affdb2c1,1035.4209,FALSE,keypress,testRsp,966,[],choice-response,In time,64ff5d15220cf18479301572,2023-09-11 14:31:47-04:00,lab8_30,6567,41,maintaskTrials
64f35663abb040f67b21100b,default,0,2ab1f3c00a463a452d042a457c55214abd7f82feac1b545f6dcc94d6affdb2c1,1035.4209,FALSE,keypress,testRsp,353,[],choice-response,In time,64ff5d15220cf18479301572,2023-09-11 14:31:47-04:00,lab1_120,5940,42,maintaskTrials
64f35663abb040f67b21100b,default,0,2ab1f3c00a463a452d042a457c55214abd7f82feac1b545f6dcc94d6affdb2c1,1035.4209,FALSE,keypress,testRsp,1043,[],choice-response,In time,64ff5d15220cf18479301572,2023-09-11 14:31:47-04:00,tone8_90,6635,43,maintaskTrials
64f35663abb040f67b21100b,default,0,2ab1f3c00a463a452d042a457c55214abd7f82feac1b545f6dcc94d6affdb2c1,1035.4209,FALSE,keypress,testRsp,44,[],choice-response,In time,64ff5d15220cf18479301572,2023-09-11 14:31:47-04:00,tone8_30,5645,44,maintaskTrials
64f35663abb040f67b21100b,default,0,2ab1f3c00a463a452d042a457c55214abd7f82feac1b545f6dcc94d6affdb2c1,1035.4209,FALSE,keypress,testRsp,95,[],choice-response,In time,64ff5d15220cf18479301572,2023-09-11 14:31:47-04:00,add1_30,5697,45,maintaskTrials
64f35663abb040f67b21100b,default,0,2ab1f3c00a463a452d042a457c55214abd7f82feac1b545f6dcc94d6affdb2c1,1035.4209,FALSE,keypress,testRsp,511,[],choice-response,In time,64ff5d15220cf18479301572,2023-09-11 14:31:47-04:00,lab1_90,6108,46,maintaskTrials
64f35663abb040f67b21100b,default,0,2ab1f3c00a463a452d042a457c55214abd7f82feac1b545f6dcc94d6affdb2c1,1035.4209,FALSE,keypress,testRsp,322,[],choice-response,In time,64ff5d15220cf18479301572,2023-09-11 14:31:47-04:00,add8_30,5922,47,maintaskTrials
64f35663abb040f67b21100b,default,0,2ab1f3c00a463a452d042a457c55214abd7f82feac1b545f6dcc94d6affdb2c1,1035.4209,FALSE,keypress,testRsp,748,[],choice-response,In time,64ff5d15220cf18479301572,2023-09-11 14:31:47-04:00,lab8_60,6351,48,maintaskTrials
64f35663abb040f67b21100b,default,0,2ab1f3c00a463a452d042a457c55214abd7f82feac1b545f6dcc94d6affdb2c1,1035.4209,FALSE,keypress,testRsp,90,[],choice-response,In time,64ff5d15220cf18479301572,2023-09-11 14:31:47-04:00,lab1_0,5682,49,maintaskTrials
64f35663abb040f67b21100b,default,0,2ab1f3c00a463a452d042a457c55214abd7f82feac1b545f6dcc94d6affdb2c1,1035.4209,FALSE,keypress,testRsp,108,[],choice-response,Out of time,64ff5d15220cf18479301572,2023-09-11 14:31:47-04:00,add8_90,5707,50,maintaskTrials
64f35663abb040f67b21100b,default,0,2ab1f3c00a463a452d042a457c55214abd7f82feac1b545f6dcc94d6affdb2c1,1035.4209,FALSE,keypress,testRsp,2281,[],choice-response,Out of time,64ff5d15220cf18479301572,2023-09-11 14:31:47-04:00,tone1_60,7893,51,maintaskTrials
64f35663abb040f67b21100b,default,0,2ab1f3c00a463a452d042a457c55214abd7f82feac1b545f6dcc94d6affdb2c1,1035.4209,FALSE,keypress,testRsp,982,[],choice-response,Out of time,64ff5d15220cf18479301572,2023-09-11 14:31:47-04:00,tone8_120,6576,52,maintaskTrials
64f35663abb040f67b21100b,default,0,2ab1f3c00a463a452d042a457c55214abd7f82feac1b545f6dcc94d6affdb2c1,1035.4209,FALSE,keypress,testRsp,484,[],choice-response,In time,64ff5d15220cf18479301572,2023-09-11 14:31:47-04:00,tone1_0,6078,53,maintaskTrials
64f35663abb040f67b21100b,default,0,2ab1f3c00a463a452d042a457c55214abd7f82feac1b545f6dcc94d6affdb2c1,1035.4209,FALSE,keypress,testRsp,540,[],choice-response,In time,64ff5d15220cf18479301572,2023-09-11 14:31:47-04:00,tone1_90,6143,54,maintaskTrials
64f35663abb040f67b21100b,default,0,2ab1f3c00a463a452d042a457c55214abd7f82feac1b545f6dcc94d6affdb2c1,1035.4209,FALSE,keypress,testRsp,1978,[],choice-response,In time,64ff5d15220cf18479301572,2023-09-11 14:31:47-04:00,tone8_0,7574,55,maintaskTrials
64f35663abb040f67b21100b,default,0,2ab1f3c00a463a452d042a457c55214abd7f82feac1b545f6dcc94d6affdb2c1,1035.4209,FALSE,keypress,testRsp,172,[],choice-response,In time,64ff5d15220cf18479301572,2023-09-11 14:31:47-04:00,add8_60,5774,56,maintaskTrials
64f35663abb040f67b21100b,default,0,2ab1f3c00a463a452d042a457c55214abd7f82feac1b545f6dcc94d6affdb2c1,1035.4209,FALSE,keypress,testRsp,1068,[],choice-response,In time,64ff5d15220cf18479301572,2023-09-11 14:31:47-04:00,add1_0,6675,57,maintaskTrials
64f35663abb040f67b21100b,default,0,2ab1f3c00a463a452d042a457c55214abd7f82feac1b545f6dcc94d6affdb2c1,1035.4209,FALSE,keypress,testRsp,2283,[],choice-response,In time,64ff5d15220cf18479301572,2023-09-11 14:31:47-04:00,add8_120,7883,58,maintaskTrials
64f35663abb040f67b21100b,default,0,2ab1f3c00a463a452d042a457c55214abd7f82feac1b545f6dcc94d6affdb2c1,1035.4209,FALSE,keypress,testRsp,1246,[],choice-response,In time,64ff5d15220cf18479301572,2023-09-11 14:31:47-04:00,tone1_120,6839,59,maintaskTrials
64f35663abb040f67b21100b,default,0,2ab1f3c00a463a452d042a457c55214abd7f82feac1b545f6dcc94d6affdb2c1,1035.4209,FALSE,keypress,testRsp,375,[],choice-response,In time,64ff5d15220cf18479301572,2023-09-11 14:31:47-04:00,tone1_30,5959,60,maintaskTrials
64f35663abb040f67b21100b,default,0,2ab1f3c00a463a452d042a457c55214abd7f82feac1b545f6dcc94d6affdb2c1,1035.4209,FALSE,keypress,testRsp,269,[],choice-response,In time,64ff5d15220cf18479301572,2023-09-11 14:31:47-04:00,lab1_60,5866,61,maintaskTrials
64f35663abb040f67b21100b,default,0,2ab1f3c00a463a452d042a457c55214abd7f82feac1b545f6dcc94d6affdb2c1,1035.4209,FALSE,keypress,testRsp,110,[],choice-response,In time,64ff5d15220cf18479301572,2023-09-11 14:31:47-04:00,lab1_30,5695,62,maintaskTrials
64f35663abb040f67b21100b,default,0,2ab1f3c00a463a452d042a457c55214abd7f82feac1b545f6dcc94d6affdb2c1,1035.4209,FALSE,keypress,testRsp,176,[],choice-response,Out of time,64ff5d15220cf18479301572,2023-09-11 14:31:47-04:00,add1_120,5781,63,maintaskTrials
64f35663abb040f67b21100b,default,0,2ab1f3c00a463a452d042a457c55214abd7f82feac1b545f6dcc94d6affdb2c1,1035.4209,FALSE,keypress,testRsp,485,[],choice-response,Out of time,64ff5d15220cf18479301572,2023-09-11 14:31:47-04:00,add1_90,6095,64,maintaskTrials
64f35663abb040f67b21100b,default,0,2ab1f3c00a463a452d042a457c55214abd7f82feac1b545f6dcc94d6affdb2c1,1035.4209,FALSE,keypress,testRsp,45,[],choice-response,In time,64ff5d15220cf18479301572,2023-09-11 14:31:47-04:00,lab8_90,5646,65,maintaskTrials
64f35663abb040f67b21100b,default,0,2ab1f3c00a463a452d042a457c55214abd7f82feac1b545f6dcc94d6affdb2c1,1035.4209,FALSE,keypress,testRsp,635,[],choice-response,In time,64ff5d15220cf18479301572,2023-09-11 14:31:47-04:00,tone8_60,6237,66,maintaskTrials
64f35663abb040f67b21100b,default,0,2ab1f3c00a463a452d042a457c55214abd7f82feac1b545f6dcc94d6affdb2c1,1035.4209,FALSE,keypress,testRsp,12,[],choice-response,In time,64ff5d15220cf18479301572,2023-09-11 14:31:47-04:00,tone8_0,5605,67,maintaskTrials
64f35663abb040f67b21100b,default,0,2ab1f3c00a463a452d042a457c55214abd7f82feac1b545f6dcc94d6affdb2c1,1035.4209,FALSE,keypress,testRsp,203,[],choice-response,In time,64ff5d15220cf18479301572,2023-09-11 14:31:47-04:00,add8_0,5792,68,maintaskTrials
64f35663abb040f67b21100b,default,0,2ab1f3c00a463a452d042a457c55214abd7f82feac1b545f6dcc94d6affdb2c1,1035.4209,FALSE,keypress,testRsp,473,[],choice-response,In time,64ff5d15220cf18479301572,2023-09-11 14:31:47-04:00,add8_30,6075,69,maintaskTrials
64f35663abb040f67b21100b,default,0,2ab1f3c00a463a452d042a457c55214abd7f82feac1b545f6dcc94d6affdb2c1,1035.4209,FALSE,keypress,testRsp,285,[],choice-response,In time,64ff5d15220cf18479301572,2023-09-11 14:31:47-04:00,add1_0,5877,70,maintaskTrials
64f35663abb040f67b21100b,default,0,2ab1f3c00a463a452d042a457c55214abd7f82feac1b545f6dcc94d6affdb2c1,1035.4209,FALSE,keypress,testRsp,297,[],choice-response,In time,64ff5d15220cf18479301572,2023-09-11 14:31:47-04:00,lab1_0,5892,71,maintaskTrials
64f35663abb040f67b21100b,default,0,2ab1f3c00a463a452d042a457c55214abd7f82feac1b545f6dcc94d6affdb2c1,1035.4209,FALSE,keypress,testRsp,195,[],choice-response,In time,64ff5d15220cf18479301572,2023-09-11 14:31:47-04:00,add8_60,5773,72,maintaskTrials
64f35663abb040f67b21100b,default,0,2ab1f3c00a463a452d042a457c55214abd7f82feac1b545f6dcc94d6affdb2c1,1035.4209,FALSE,keypress,testRsp,120,[],choice-response,In time,64ff5d15220cf18479301572,2023-09-11 14:31:47-04:00,lab1_120,5737,73,maintaskTrials
64f35663abb040f67b21100b,default,0,2ab1f3c00a463a452d042a457c55214abd7f82feac1b545f6dcc94d6affdb2c1,1035.4209,FALSE,keypress,testRsp,44,[],choice-response,In time,64ff5d15220cf18479301572,2023-09-11 14:31:47-04:00,tone1_60,5641,74,maintaskTrials
64f35663abb040f67b21100b,default,0,2ab1f3c00a463a452d042a457c55214abd7f82feac1b545f6dcc94d6affdb2c1,1035.4209,FALSE,keypress,testRsp,573,[],choice-response,In time,64ff5d15220cf18479301572,2023-09-11 14:31:47-04:00,tone1_30,6172,75,maintaskTrials
64f35663abb040f67b21100b,default,0,2ab1f3c00a463a452d042a457c55214abd7f82feac1b545f6dcc94d6affdb2c1,1035.4209,FALSE,keypress,testRsp,236,[],choice-response,In time,64ff5d15220cf18479301572,2023-09-11 14:31:47-04:00,tone8_30,5842,76,maintaskTrials
64f35663abb040f67b21100b,default,0,2ab1f3c00a463a452d042a457c55214abd7f82feac1b545f6dcc94d6affdb2c1,1035.4209,FALSE,keypress,testRsp,648,[],choice-response,In time,64ff5d15220cf18479301572,2023-09-11 14:31:47-04:00,lab8_90,6244,77,maintaskTrials
64f35663abb040f67b21100b,default,0,2ab1f3c00a463a452d042a457c55214abd7f82feac1b545f6dcc94d6affdb2c1,1035.4209,FALSE,keypress,testRsp,25,[],choice-response,In time,64ff5d15220cf18479301572,2023-09-11 14:31:47-04:00,tone8_90,5625,78,maintaskTrials
64f35663abb040f67b21100b,default,0,2ab1f3c00a463a452d042a457c55214abd7f82feac1b545f6dcc94d6affdb2c1,1035.4209,FALSE,keypress,testRsp,374,[],choice-response,In time,64ff5d15220cf18479301572,2023-09-11 14:31:47-04:00,lab1_90,5972,79,maintaskTrials
64f35663abb040f67b21100b,default,0,2ab1f3c00a463a452d042a457c55214abd7f82feac1b545f6dcc94d6affdb2c1,1035.4209,FALSE,keypress,testRsp,507,[],choice-response,In time,64ff5d15220cf18479301572,2023-09-11 14:31:47-04:00,tone1_0,6104,80,maintaskTrials
64f35663abb040f67b21100b,default,0,2ab1f3c00a463a452d042a457c55214abd7f82feac1b545f6dcc94d6affdb2c1,1035.4209,FALSE,keypress,testRsp,3445,[],choice-response,Out of time,64ff5d15220cf18479301572,2023-09-11 14:31:47-04:00,tone1_90,9071,81,maintaskTrials
64f35663abb040f67b21100b,default,0,2ab1f3c00a463a452d042a457c55214abd7f82feac1b545f6dcc94d6affdb2c1,1035.4209,FALSE,keypress,testRsp,115,[],choice-response,In time,64ff5d15220cf18479301572,2023-09-11 14:31:47-04:00,lab1_60,5722,82,maintaskTrials
64f35663abb040f67b21100b,default,0,2ab1f3c00a463a452d042a457c55214abd7f82feac1b545f6dcc94d6affdb2c1,1035.4209,FALSE,keypress,testRsp,1305,[],choice-response,In time,64ff5d15220cf18479301572,2023-09-11 14:31:47-04:00,lab8_30,6926,83,maintaskTrials
64f35663abb040f67b21100b,default,0,2ab1f3c00a463a452d042a457c55214abd7f82feac1b545f6dcc94d6affdb2c1,1035.4209,FALSE,keypress,testRsp,675,[],choice-response,Out of time,64ff5d15220cf18479301572,2023-09-11 14:31:47-04:00,add8_120,6270,84,maintaskTrials
64f35663abb040f67b21100b,default,0,2ab1f3c00a463a452d042a457c55214abd7f82feac1b545f6dcc94d6affdb2c1,1035.4209,FALSE,keypress,testRsp,1249,[],choice-response,In time,64ff5d15220cf18479301572,2023-09-11 14:31:47-04:00,tone1_120,6846,85,maintaskTrials
64f35663abb040f67b21100b,default,0,2ab1f3c00a463a452d042a457c55214abd7f82feac1b545f6dcc94d6affdb2c1,1035.4209,FALSE,keypress,testRsp,1132,[],choice-response,In time,64ff5d15220cf18479301572,2023-09-11 14:31:47-04:00,add1_120,6736,86,maintaskTrials
64f35663abb040f67b21100b,default,0,2ab1f3c00a463a452d042a457c55214abd7f82feac1b545f6dcc94d6affdb2c1,1035.4209,FALSE,keypress,testRsp,908,[],choice-response,In time,64ff5d15220cf18479301572,2023-09-11 14:31:47-04:00,add1_60,6489,87,maintaskTrials
64f35663abb040f67b21100b,default,0,2ab1f3c00a463a452d042a457c55214abd7f82feac1b545f6dcc94d6affdb2c1,1035.4209,FALSE,keypress,testRsp,514,[],choice-response,In time,64ff5d15220cf18479301572,2023-09-11 14:31:47-04:00,lab1_30,6098,88,maintaskTrials
64f35663abb040f67b21100b,default,0,2ab1f3c00a463a452d042a457c55214abd7f82feac1b545f6dcc94d6affdb2c1,1035.4209,FALSE,keypress,testRsp,666,[],choice-response,Out of time,64ff5d15220cf18479301572,2023-09-11 14:31:47-04:00,add8_90,6249,89,maintaskTrials
64f35663abb040f67b21100b,default,0,2ab1f3c00a463a452d042a457c55214abd7f82feac1b545f6dcc94d6affdb2c1,1035.4209,FALSE,keypress,testRsp,578,[],choice-response,In time,64ff5d15220cf18479301572,2023-09-11 14:31:47-04:00,lab8_60,6175,90,maintaskTrials
64f35663abb040f67b21100b,default,0,2ab1f3c00a463a452d042a457c55214abd7f82feac1b545f6dcc94d6affdb2c1,1035.4209,FALSE,keypress,testRsp,358,[],choice-response,In time,64ff5d15220cf18479301572,2023-09-11 14:31:47-04:00,tone8_60,5949,91,maintaskTrials
64f35663abb040f67b21100b,default,0,2ab1f3c00a463a452d042a457c55214abd7f82feac1b545f6dcc94d6affdb2c1,1035.4209,FALSE,keypress,testRsp,957,[],choice-response,In time,64ff5d15220cf18479301572,2023-09-11 14:31:47-04:00,tone8_120,6560,92,maintaskTrials
64f35663abb040f67b21100b,default,0,2ab1f3c00a463a452d042a457c55214abd7f82feac1b545f6dcc94d6affdb2c1,1035.4209,FALSE,keypress,testRsp,710,[],choice-response,In time,64ff5d15220cf18479301572,2023-09-11 14:31:47-04:00,add1_30,6296,93,maintaskTrials
64f35663abb040f67b21100b,default,0,2ab1f3c00a463a452d042a457c55214abd7f82feac1b545f6dcc94d6affdb2c1,1035.4209,FALSE,keypress,testRsp,146,[],choice-response,Out of time,64ff5d15220cf18479301572,2023-09-11 14:31:47-04:00,lab8_0,5730,94,maintaskTrials
64f35663abb040f67b21100b,default,0,2ab1f3c00a463a452d042a457c55214abd7f82feac1b545f6dcc94d6affdb2c1,1035.4209,FALSE,keypress,testRsp,930,[],choice-response,In time,64ff5d15220cf18479301572,2023-09-11 14:31:47-04:00,lab8_120,6525,95,maintaskTrials
64f35663abb040f67b21100b,default,0,2ab1f3c00a463a452d042a457c55214abd7f82feac1b545f6dcc94d6affdb2c1,1035.4209,FALSE,keypress,testRsp,271,[],choice-response,Out of time,64ff5d15220cf18479301572,2023-09-11 14:31:47-04:00,add1_90,5881,96,maintaskTrials
64f35663abb040f67b21100b,default,0,2ab1f3c00a463a452d042a457c55214abd7f82feac1b545f6dcc94d6affdb2c1,1035.4209,FALSE,keypress,testRsp,153,[],choice-response,Out of time,64ff5d15220cf18479301572,2023-09-11 14:31:47-04:00,tone1_30,5728,97,maintaskTrials
64f35663abb040f67b21100b,default,0,2ab1f3c00a463a452d042a457c55214abd7f82feac1b545f6dcc94d6affdb2c1,1035.4209,FALSE,keypress,testRsp,123,[],choice-response,In time,64ff5d15220cf18479301572,2023-09-11 14:31:47-04:00,add8_90,5721,98,maintaskTrials
64f35663abb040f67b21100b,default,0,2ab1f3c00a463a452d042a457c55214abd7f82feac1b545f6dcc94d6affdb2c1,1035.4209,FALSE,keypress,testRsp,310,[],choice-response,In time,64ff5d15220cf18479301572,2023-09-11 14:31:47-04:00,lab1_120,5904,99,maintaskTrials
64f35663abb040f67b21100b,default,0,2ab1f3c00a463a452d042a457c55214abd7f82feac1b545f6dcc94d6affdb2c1,1035.4209,FALSE,keypress,testRsp,2307,[],choice-response,In time,64ff5d15220cf18479301572,2023-09-11 14:31:47-04:00,lab1_0,7901,100,maintaskTrials
64f35663abb040f67b21100b,default,0,2ab1f3c00a463a452d042a457c55214abd7f82feac1b545f6dcc94d6affdb2c1,1035.4209,FALSE,keypress,testRsp,3766,[],choice-response,Out of time,64ff5d15220cf18479301572,2023-09-11 14:31:47-04:00,add1_120,9374,101,maintaskTrials
64f35663abb040f67b21100b,default,0,2ab1f3c00a463a452d042a457c55214abd7f82feac1b545f6dcc94d6affdb2c1,1035.4209,FALSE,keypress,testRsp,1502,[],choice-response,Out of time,64ff5d15220cf18479301572,2023-09-11 14:31:47-04:00,tone8_90,7099,102,maintaskTrials
64f35663abb040f67b21100b,default,0,2ab1f3c00a463a452d042a457c55214abd7f82feac1b545f6dcc94d6affdb2c1,1035.4209,FALSE,keypress,testRsp,681,[],choice-response,Out of time,64ff5d15220cf18479301572,2023-09-11 14:31:47-04:00,add8_0,6265,103,maintaskTrials
64f35663abb040f67b21100b,default,0,2ab1f3c00a463a452d042a457c55214abd7f82feac1b545f6dcc94d6affdb2c1,1035.4209,FALSE,keypress,testRsp,80,[],choice-response,In time,64ff5d15220cf18479301572,2023-09-11 14:31:47-04:00,lab8_60,5670,104,maintaskTrials
64f35663abb040f67b21100b,default,0,2ab1f3c00a463a452d042a457c55214abd7f82feac1b545f6dcc94d6affdb2c1,1035.4209,FALSE,keypress,testRsp,194,[],choice-response,Out of time,64ff5d15220cf18479301572,2023-09-11 14:31:47-04:00,lab8_0,5810,105,maintaskTrials
64f35663abb040f67b21100b,default,0,2ab1f3c00a463a452d042a457c55214abd7f82feac1b545f6dcc94d6affdb2c1,1035.4209,FALSE,keypress,testRsp,216,[],choice-response,In time,64ff5d15220cf18479301572,2023-09-11 14:31:47-04:00,lab8_120,5831,106,maintaskTrials
64f35663abb040f67b21100b,default,0,2ab1f3c00a463a452d042a457c55214abd7f82feac1b545f6dcc94d6affdb2c1,1035.4209,FALSE,keypress,testRsp,334,[],choice-response,In time,64ff5d15220cf18479301572,2023-09-11 14:31:47-04:00,add1_60,5928,107,maintaskTrials
64f35663abb040f67b21100b,default,0,2ab1f3c00a463a452d042a457c55214abd7f82feac1b545f6dcc94d6affdb2c1,1035.4209,FALSE,keypress,testRsp,564,[],choice-response,In time,64ff5d15220cf18479301572,2023-09-11 14:31:47-04:00,add1_30,6157,108,maintaskTrials
64f35663abb040f67b21100b,default,0,2ab1f3c00a463a452d042a457c55214abd7f82feac1b545f6dcc94d6affdb2c1,1035.4209,FALSE,keypress,testRsp,1109,[],choice-response,In time,64ff5d15220cf18479301572,2023-09-11 14:31:47-04:00,lab8_90,6705,109,maintaskTrials
64f35663abb040f67b21100b,default,0,2ab1f3c00a463a452d042a457c55214abd7f82feac1b545f6dcc94d6affdb2c1,1035.4209,FALSE,keypress,testRsp,1433,[],choice-response,In time,64ff5d15220cf18479301572,2023-09-11 14:31:47-04:00,lab1_30,7035,110,maintaskTrials
64f35663abb040f67b21100b,default,0,2ab1f3c00a463a452d042a457c55214abd7f82feac1b545f6dcc94d6affdb2c1,1035.4209,FALSE,keypress,testRsp,370,[],choice-response,In time,64ff5d15220cf18479301572,2023-09-11 14:31:47-04:00,lab1_60,5956,111,maintaskTrials
64f35663abb040f67b21100b,default,0,2ab1f3c00a463a452d042a457c55214abd7f82feac1b545f6dcc94d6affdb2c1,1035.4209,FALSE,keypress,testRsp,1,[],choice-response,In time,64ff5d15220cf18479301572,2023-09-11 14:31:47-04:00,lab8_30,5601,112,maintaskTrials
64f35663abb040f67b21100b,default,0,2ab1f3c00a463a452d042a457c55214abd7f82feac1b545f6dcc94d6affdb2c1,1035.4209,FALSE,keypress,testRsp,74,[],choice-response,In time,64ff5d15220cf18479301572,2023-09-11 14:31:47-04:00,tone1_60,5671,113,maintaskTrials
64f35663abb040f67b21100b,default,0,2ab1f3c00a463a452d042a457c55214abd7f82feac1b545f6dcc94d6affdb2c1,1035.4209,FALSE,keypress,testRsp,28,[],choice-response,In time,64ff5d15220cf18479301572,2023-09-11 14:31:47-04:00,add8_60,5625,114,maintaskTrials
64f35663abb040f67b21100b,default,0,2ab1f3c00a463a452d042a457c55214abd7f82feac1b545f6dcc94d6affdb2c1,1035.4209,FALSE,keypress,testRsp,598,[],choice-response,Out of time,64ff5d15220cf18479301572,2023-09-11 14:31:47-04:00,tone8_120,6191,115,maintaskTrials
64f35663abb040f67b21100b,default,0,2ab1f3c00a463a452d042a457c55214abd7f82feac1b545f6dcc94d6affdb2c1,1035.4209,FALSE,keypress,testRsp,1072,[],choice-response,In time,64ff5d15220cf18479301572,2023-09-11 14:31:47-04:00,tone1_120,6652,116,maintaskTrials
64f35663abb040f67b21100b,default,0,2ab1f3c00a463a452d042a457c55214abd7f82feac1b545f6dcc94d6affdb2c1,1035.4209,FALSE,keypress,testRsp,107,[],choice-response,In time,64ff5d15220cf18479301572,2023-09-11 14:31:47-04:00,tone8_0,5705,117,maintaskTrials
64f35663abb040f67b21100b,default,0,2ab1f3c00a463a452d042a457c55214abd7f82feac1b545f6dcc94d6affdb2c1,1035.4209,FALSE,keypress,testRsp,1005,[],choice-response,In time,64ff5d15220cf18479301572,2023-09-11 14:31:47-04:00,add1_0,6590,118,maintaskTrials
64f35663abb040f67b21100b,default,0,2ab1f3c00a463a452d042a457c55214abd7f82feac1b545f6dcc94d6affdb2c1,1035.4209,FALSE,keypress,testRsp,380,[],choice-response,In time,64ff5d15220cf18479301572,2023-09-11 14:31:47-04:00,tone1_90,5975,119,maintaskTrials
64f35663abb040f67b21100b,default,0,2ab1f3c00a463a452d042a457c55214abd7f82feac1b545f6dcc94d6affdb2c1,1035.4209,FALSE,keypress,testRsp,156,[],choice-response,In time,64ff5d15220cf18479301572,2023-09-11 14:31:47-04:00,tone8_30,5748,120,maintaskTrials
64f35663abb040f67b21100b,default,0,2ab1f3c00a463a452d042a457c55214abd7f82feac1b545f6dcc94d6affdb2c1,1035.4209,FALSE,keypress,testRsp,601,[],choice-response,In time,64ff5d15220cf18479301572,2023-09-11 14:31:47-04:00,tone1_0,6191,121,maintaskTrials
64f35663abb040f67b21100b,default,0,2ab1f3c00a463a452d042a457c55214abd7f82feac1b545f6dcc94d6affdb2c1,1035.4209,FALSE,keypress,testRsp,1041,[],choice-response,In time,64ff5d15220cf18479301572,2023-09-11 14:31:47-04:00,lab1_90,6668,122,maintaskTrials
64f35663abb040f67b21100b,default,0,2ab1f3c00a463a452d042a457c55214abd7f82feac1b545f6dcc94d6affdb2c1,1035.4209,FALSE,keypress,testRsp,343,[],choice-response,In time,64ff5d15220cf18479301572,2023-09-11 14:31:47-04:00,add8_30,5946,123,maintaskTrials
64f35663abb040f67b21100b,default,0,2ab1f3c00a463a452d042a457c55214abd7f82feac1b545f6dcc94d6affdb2c1,1035.4209,FALSE,keypress,testRsp,505,[],choice-response,In time,64ff5d15220cf18479301572,2023-09-11 14:31:47-04:00,tone8_60,6108,124,maintaskTrials
64f35663abb040f67b21100b,default,0,2ab1f3c00a463a452d042a457c55214abd7f82feac1b545f6dcc94d6affdb2c1,1035.4209,FALSE,keypress,testRsp,312,[],choice-response,Out of time,64ff5d15220cf18479301572,2023-09-11 14:31:47-04:00,add8_120,5918,125,maintaskTrials
64f35663abb040f67b21100b,default,0,2ab1f3c00a463a452d042a457c55214abd7f82feac1b545f6dcc94d6affdb2c1,1035.4209,FALSE,keypress,testRsp,110,[],choice-response,In time,64ff5d15220cf18479301572,2023-09-11 14:31:47-04:00,add1_90,5699,126,maintaskTrials
64f35663abb040f67b21100b,default,0,2ab1f3c00a463a452d042a457c55214abd7f82feac1b545f6dcc94d6affdb2c1,1035.4209,FALSE,keypress,testRsp,341,[],choice-response,In time,64ff5d15220cf18479301572,2023-09-11 14:31:47-04:00,lab8_0,5938,127,maintaskTrials
64f35663abb040f67b21100b,default,0,2ab1f3c00a463a452d042a457c55214abd7f82feac1b545f6dcc94d6affdb2c1,1035.4209,FALSE,keypress,testRsp,261,[],choice-response,Out of time,64ff5d15220cf18479301572,2023-09-11 14:31:47-04:00,add8_120,5843,128,maintaskTrials
64f35663abb040f67b21100b,default,0,2ab1f3c00a463a452d042a457c55214abd7f82feac1b545f6dcc94d6affdb2c1,1035.4209,FALSE,keypress,testRsp,337,[],choice-response,In time,64ff5d15220cf18479301572,2023-09-11 14:31:47-04:00,lab1_90,5930,129,maintaskTrials
64f35663abb040f67b21100b,default,0,2ab1f3c00a463a452d042a457c55214abd7f82feac1b545f6dcc94d6affdb2c1,1035.4209,FALSE,keypress,testRsp,403,[],choice-response,In time,64ff5d15220cf18479301572,2023-09-11 14:31:47-04:00,add1_30,6012,130,maintaskTrials
64f35663abb040f67b21100b,default,0,2ab1f3c00a463a452d042a457c55214abd7f82feac1b545f6dcc94d6affdb2c1,1035.4209,FALSE,keypress,testRsp,21,[],choice-response,In time,64ff5d15220cf18479301572,2023-09-11 14:31:47-04:00,lab1_0,5614,131,maintaskTrials
64f35663abb040f67b21100b,default,0,2ab1f3c00a463a452d042a457c55214abd7f82feac1b545f6dcc94d6affdb2c1,1035.4209,FALSE,keypress,testRsp,386,[],choice-response,In time,64ff5d15220cf18479301572,2023-09-11 14:31:47-04:00,add8_30,5985,132,maintaskTrials
64f35663abb040f67b21100b,default,0,2ab1f3c00a463a452d042a457c55214abd7f82feac1b545f6dcc94d6affdb2c1,1035.4209,FALSE,keypress,testRsp,392,[],choice-response,Out of time,64ff5d15220cf18479301572,2023-09-11 14:31:47-04:00,add1_120,5979,133,maintaskTrials
64f35663abb040f67b21100b,default,0,2ab1f3c00a463a452d042a457c55214abd7f82feac1b545f6dcc94d6affdb2c1,1035.4209,FALSE,keypress,testRsp,300,[],choice-response,In time,64ff5d15220cf18479301572,2023-09-11 14:31:47-04:00,tone1_30,5901,134,maintaskTrials
64f35663abb040f67b21100b,default,0,2ab1f3c00a463a452d042a457c55214abd7f82feac1b545f6dcc94d6affdb2c1,1035.4209,FALSE,keypress,testRsp,336,[],choice-response,In time,64ff5d15220cf18479301572,2023-09-11 14:31:47-04:00,tone8_90,5939,135,maintaskTrials
64f35663abb040f67b21100b,default,0,2ab1f3c00a463a452d042a457c55214abd7f82feac1b545f6dcc94d6affdb2c1,1035.4209,FALSE,keypress,testRsp,665,[],choice-response,In time,64ff5d15220cf18479301572,2023-09-11 14:31:47-04:00,lab1_120,6256,136,maintaskTrials
64f35663abb040f67b21100b,default,0,2ab1f3c00a463a452d042a457c55214abd7f82feac1b545f6dcc94d6affdb2c1,1035.4209,FALSE,keypress,testRsp,661,[],choice-response,In time,64ff5d15220cf18479301572,2023-09-11 14:31:47-04:00,tone1_60,6240,137,maintaskTrials
64f35663abb040f67b21100b,default,0,2ab1f3c00a463a452d042a457c55214abd7f82feac1b545f6dcc94d6affdb2c1,1035.4209,FALSE,keypress,testRsp,258,[],choice-response,In time,64ff5d15220cf18479301572,2023-09-11 14:31:47-04:00,add1_0,5850,138,maintaskTrials
64f35663abb040f67b21100b,default,0,2ab1f3c00a463a452d042a457c55214abd7f82feac1b545f6dcc94d6affdb2c1,1035.4209,FALSE,keypress,testRsp,815,[],choice-response,Out of time,64ff5d15220cf18479301572,2023-09-11 14:31:47-04:00,add8_60,6410,139,maintaskTrials
64f35663abb040f67b21100b,default,0,2ab1f3c00a463a452d042a457c55214abd7f82feac1b545f6dcc94d6affdb2c1,1035.4209,FALSE,keypress,testRsp,268,[],choice-response,Out of time,64ff5d15220cf18479301572,2023-09-11 14:31:47-04:00,tone8_30,5866,140,maintaskTrials
64f35663abb040f67b21100b,default,0,2ab1f3c00a463a452d042a457c55214abd7f82feac1b545f6dcc94d6affdb2c1,1035.4209,FALSE,keypress,testRsp,238,[],choice-response,In time,64ff5d15220cf18479301572,2023-09-11 14:31:47-04:00,lab8_120,5850,141,maintaskTrials
64f35663abb040f67b21100b,default,0,2ab1f3c00a463a452d042a457c55214abd7f82feac1b545f6dcc94d6affdb2c1,1035.4209,FALSE,keypress,testRsp,230,[],choice-response,In time,64ff5d15220cf18479301572,2023-09-11 14:31:47-04:00,lab8_60,5824,142,maintaskTrials
64f35663abb040f67b21100b,default,0,2ab1f3c00a463a452d042a457c55214abd7f82feac1b545f6dcc94d6affdb2c1,1035.4209,FALSE,keypress,testRsp,188,[],choice-response,Out of time,64ff5d15220cf18479301572,2023-09-11 14:31:47-04:00,add8_90,5790,143,maintaskTrials
64f35663abb040f67b21100b,default,0,2ab1f3c00a463a452d042a457c55214abd7f82feac1b545f6dcc94d6affdb2c1,1035.4209,FALSE,keypress,testRsp,215,[],choice-response,Out of time,64ff5d15220cf18479301572,2023-09-11 14:31:47-04:00,tone8_120,5831,144,maintaskTrials
64f35663abb040f67b21100b,default,0,2ab1f3c00a463a452d042a457c55214abd7f82feac1b545f6dcc94d6affdb2c1,1035.4209,FALSE,keypress,testRsp,191,[],choice-response,In time,64ff5d15220cf18479301572,2023-09-11 14:31:47-04:00,add8_0,5786,145,maintaskTrials
64f35663abb040f67b21100b,default,0,2ab1f3c00a463a452d042a457c55214abd7f82feac1b545f6dcc94d6affdb2c1,1035.4209,FALSE,keypress,testRsp,97,[],choice-response,Out of time,64ff5d15220cf18479301572,2023-09-11 14:31:47-04:00,tone1_90,5694,146,maintaskTrials
64f35663abb040f67b21100b,default,0,2ab1f3c00a463a452d042a457c55214abd7f82feac1b545f6dcc94d6affdb2c1,1035.4209,FALSE,keypress,testRsp,1944,[],choice-response,In time,64ff5d15220cf18479301572,2023-09-11 14:31:47-04:00,tone1_0,7559,147,maintaskTrials
64f35663abb040f67b21100b,default,0,2ab1f3c00a463a452d042a457c55214abd7f82feac1b545f6dcc94d6affdb2c1,1035.4209,FALSE,keypress,testRsp,333,[],choice-response,In time,64ff5d15220cf18479301572,2023-09-11 14:31:47-04:00,lab1_30,5941,148,maintaskTrials
64f35663abb040f67b21100b,default,0,2ab1f3c00a463a452d042a457c55214abd7f82feac1b545f6dcc94d6affdb2c1,1035.4209,FALSE,keypress,testRsp,293,[],choice-response,In time,64ff5d15220cf18479301572,2023-09-11 14:31:47-04:00,lab8_90,5886,149,maintaskTrials
64f35663abb040f67b21100b,default,0,2ab1f3c00a463a452d042a457c55214abd7f82feac1b545f6dcc94d6affdb2c1,1035.4209,FALSE,keypress,testRsp,252,[],choice-response,In time,64ff5d15220cf18479301572,2023-09-11 14:31:47-04:00,lab1_60,5835,150,maintaskTrials
64f35663abb040f67b21100b,default,0,2ab1f3c00a463a452d042a457c55214abd7f82feac1b545f6dcc94d6affdb2c1,1035.4209,FALSE,keypress,testRsp,115,[],choice-response,Out of time,64ff5d15220cf18479301572,2023-09-11 14:31:47-04:00,tone1_120,5716,151,maintaskTrials
64f35663abb040f67b21100b,default,0,2ab1f3c00a463a452d042a457c55214abd7f82feac1b545f6dcc94d6affdb2c1,1035.4209,FALSE,keypress,testRsp,1009,[],choice-response,Out of time,64ff5d15220cf18479301572,2023-09-11 14:31:47-04:00,add1_90,6608,152,maintaskTrials
64f35663abb040f67b21100b,default,0,2ab1f3c00a463a452d042a457c55214abd7f82feac1b545f6dcc94d6affdb2c1,1035.4209,FALSE,keypress,testRsp,251,[],choice-response,Out of time,64ff5d15220cf18479301572,2023-09-11 14:31:47-04:00,tone8_0,5863,153,maintaskTrials
64f35663abb040f67b21100b,default,0,2ab1f3c00a463a452d042a457c55214abd7f82feac1b545f6dcc94d6affdb2c1,1035.4209,FALSE,keypress,testRsp,76,[],choice-response,In time,64ff5d15220cf18479301572,2023-09-11 14:31:47-04:00,tone8_60,5702,154,maintaskTrials
64f35663abb040f67b21100b,default,0,2ab1f3c00a463a452d042a457c55214abd7f82feac1b545f6dcc94d6affdb2c1,1035.4209,FALSE,keypress,testRsp,78,[],choice-response,In time,64ff5d15220cf18479301572,2023-09-11 14:31:47-04:00,add1_60,5667,155,maintaskTrials
64f35663abb040f67b21100b,default,0,2ab1f3c00a463a452d042a457c55214abd7f82feac1b545f6dcc94d6affdb2c1,1035.4209,FALSE,keypress,testRsp,317,[],choice-response,Out of time,64ff5d15220cf18479301572,2023-09-11 14:31:47-04:00,lab8_30,5909,156,maintaskTrials
64f35663abb040f67b21100b,default,0,662937ce0df27bacdaea0d27e5ccd72d18ed77bfe6af9b74148339b0c5e38509,1216.445891,TRUE,click,exampleRsp_tone,11918,['Out of time'],choice-response,Out of time,64ff6375220cf18479301574,2023-09-11 14:59:00-04:00,tone8_150,21090,1,example_tone
64f35663abb040f67b21100b,default,0,662937ce0df27bacdaea0d27e5ccd72d18ed77bfe6af9b74148339b0c5e38509,1216.445891,TRUE,click,exampleRsp_lab,8306,['Out of time'],choice-response,Out of time,64ff6375220cf18479301574,2023-09-11 14:59:00-04:00,add1_150,17264,2,example_lab
64f35663abb040f67b21100b,default,0,662937ce0df27bacdaea0d27e5ccd72d18ed77bfe6af9b74148339b0c5e38509,1216.445891,TRUE,click,exampleRsp_lab,2219,['Out of time'],choice-response,Out of time,64ff6375220cf18479301574,2023-09-11 14:59:00-04:00,lab1_150,10845,3,example_lab
64f35663abb040f67b21100b,default,0,662937ce0df27bacdaea0d27e5ccd72d18ed77bfe6af9b74148339b0c5e38509,1216.445891,TRUE,click,exampleRsp_lab,2044,['Out of time'],choice-response,Out of time,64ff6375220cf18479301574,2023-09-11 14:59:00-04:00,add8_150,10576,4,example_lab
64f35663abb040f67b21100b,default,0,662937ce0df27bacdaea0d27e5ccd72d18ed77bfe6af9b74148339b0c5e38509,1216.445891,TRUE,click,exampleRsp_lab,2157,['Out of time'],choice-response,Out of time,64ff6375220cf18479301574,2023-09-11 14:59:00-04:00,lab8_150,10787,5,example_lab
64f35663abb040f67b21100b,default,0,662937ce0df27bacdaea0d27e5ccd72d18ed77bfe6af9b74148339b0c5e38509,1216.445891,TRUE,click,exampleRsp_tone,2523,['Out of time'],choice-response,Out of time,64ff6375220cf18479301574,2023-09-11 14:59:00-04:00,tone1_150,11386,6,example_tone
64f35663abb040f67b21100b,default,0,662937ce0df27bacdaea0d27e5ccd72d18ed77bfe6af9b74148339b0c5e38509,1216.445891,FALSE,click,testRsp,3390,[],choice-response,Out of time,64ff6375220cf18479301574,2023-09-11 14:59:00-04:00,add8_90,9730,7,maintaskTrials
64f35663abb040f67b21100b,default,0,662937ce0df27bacdaea0d27e5ccd72d18ed77bfe6af9b74148339b0c5e38509,1216.445891,FALSE,click,testRsp,1362,[],choice-response,In time,64ff6375220cf18479301574,2023-09-11 14:59:00-04:00,add8_60,7344,8,maintaskTrials
64f35663abb040f67b21100b,default,0,662937ce0df27bacdaea0d27e5ccd72d18ed77bfe6af9b74148339b0c5e38509,1216.445891,FALSE,click,testRsp,979,[],choice-response,In time,64ff6375220cf18479301574,2023-09-11 14:59:00-04:00,add1_0,7294,9,maintaskTrials
64f35663abb040f67b21100b,default,0,662937ce0df27bacdaea0d27e5ccd72d18ed77bfe6af9b74148339b0c5e38509,1216.445891,FALSE,click,testRsp,748,[],choice-response,In time,64ff6375220cf18479301574,2023-09-11 14:59:00-04:00,add8_0,6665,10,maintaskTrials
64f35663abb040f67b21100b,default,0,662937ce0df27bacdaea0d27e5ccd72d18ed77bfe6af9b74148339b0c5e38509,1216.445891,FALSE,click,testRsp,797,[],choice-response,Out of time,64ff6375220cf18479301574,2023-09-11 14:59:00-04:00,add1_120,6699,11,maintaskTrials
64f35663abb040f67b21100b,default,0,662937ce0df27bacdaea0d27e5ccd72d18ed77bfe6af9b74148339b0c5e38509,1216.445891,FALSE,click,testRsp,854,[],choice-response,Out of time,64ff6375220cf18479301574,2023-09-11 14:59:00-04:00,add1_60,6829,12,maintaskTrials
64f35663abb040f67b21100b,default,0,662937ce0df27bacdaea0d27e5ccd72d18ed77bfe6af9b74148339b0c5e38509,1216.445891,FALSE,click,testRsp,1025,[],choice-response,In time,64ff6375220cf18479301574,2023-09-11 14:59:00-04:00,lab1_0,7164,13,maintaskTrials
64f35663abb040f67b21100b,default,0,662937ce0df27bacdaea0d27e5ccd72d18ed77bfe6af9b74148339b0c5e38509,1216.445891,FALSE,click,testRsp,12847,[],choice-response,Out of time,64ff6375220cf18479301574,2023-09-11 14:59:00-04:00,tone8_120,18742,14,maintaskTrials
64f35663abb040f67b21100b,default,0,662937ce0df27bacdaea0d27e5ccd72d18ed77bfe6af9b74148339b0c5e38509,1216.445891,FALSE,click,testRsp,503,[],choice-response,Out of time,64ff6375220cf18479301574,2023-09-11 14:59:00-04:00,lab1_120,6570,15,maintaskTrials
64f35663abb040f67b21100b,default,0,662937ce0df27bacdaea0d27e5ccd72d18ed77bfe6af9b74148339b0c5e38509,1216.445891,FALSE,click,testRsp,1220,[],choice-response,In time,64ff6375220cf18479301574,2023-09-11 14:59:00-04:00,lab8_0,7359,16,maintaskTrials
64f35663abb040f67b21100b,default,0,662937ce0df27bacdaea0d27e5ccd72d18ed77bfe6af9b74148339b0c5e38509,1216.445891,FALSE,click,testRsp,799,[],choice-response,Out of time,64ff6375220cf18479301574,2023-09-11 14:59:00-04:00,lab1_60,6713,17,maintaskTrials
64f35663abb040f67b21100b,default,0,662937ce0df27bacdaea0d27e5ccd72d18ed77bfe6af9b74148339b0c5e38509,1216.445891,FALSE,click,testRsp,966,[],choice-response,In time,64ff6375220cf18479301574,2023-09-11 14:59:00-04:00,lab8_30,6880,18,maintaskTrials
64f35663abb040f67b21100b,default,0,662937ce0df27bacdaea0d27e5ccd72d18ed77bfe6af9b74148339b0c5e38509,1216.445891,FALSE,click,testRsp,972,[],choice-response,Out of time,64ff6375220cf18479301574,2023-09-11 14:59:00-04:00,add8_120,7154,19,maintaskTrials
64f35663abb040f67b21100b,default,0,662937ce0df27bacdaea0d27e5ccd72d18ed77bfe6af9b74148339b0c5e38509,1216.445891,FALSE,click,testRsp,2270,[],choice-response,In time,64ff6375220cf18479301574,2023-09-11 14:59:00-04:00,tone1_30,8189,20,maintaskTrials
64f35663abb040f67b21100b,default,0,662937ce0df27bacdaea0d27e5ccd72d18ed77bfe6af9b74148339b0c5e38509,1216.445891,FALSE,click,testRsp,886,[],choice-response,In time,64ff6375220cf18479301574,2023-09-11 14:59:00-04:00,lab8_60,8954,21,maintaskTrials
64f35663abb040f67b21100b,default,0,662937ce0df27bacdaea0d27e5ccd72d18ed77bfe6af9b74148339b0c5e38509,1216.445891,FALSE,click,testRsp,1647,[],choice-response,In time,64ff6375220cf18479301574,2023-09-11 14:59:00-04:00,tone8_60,7690,22,maintaskTrials
64f35663abb040f67b21100b,default,0,662937ce0df27bacdaea0d27e5ccd72d18ed77bfe6af9b74148339b0c5e38509,1216.445891,FALSE,click,testRsp,599,[],choice-response,In time,64ff6375220cf18479301574,2023-09-11 14:59:00-04:00,tone8_30,6663,23,maintaskTrials
64f35663abb040f67b21100b,default,0,662937ce0df27bacdaea0d27e5ccd72d18ed77bfe6af9b74148339b0c5e38509,1216.445891,FALSE,click,testRsp,8848,[],choice-response,Out of time,64ff6375220cf18479301574,2023-09-11 14:59:00-04:00,tone1_90,14833,24,maintaskTrials
64f35663abb040f67b21100b,default,0,662937ce0df27bacdaea0d27e5ccd72d18ed77bfe6af9b74148339b0c5e38509,1216.445891,FALSE,click,testRsp,10811,[],choice-response,In time,64ff6375220cf18479301574,2023-09-11 14:59:00-04:00,lab8_120,16808,25,maintaskTrials
64f35663abb040f67b21100b,default,0,662937ce0df27bacdaea0d27e5ccd72d18ed77bfe6af9b74148339b0c5e38509,1216.445891,FALSE,click,testRsp,546,[],choice-response,In time,64ff6375220cf18479301574,2023-09-11 14:59:00-04:00,lab8_90,6595,26,maintaskTrials
64f35663abb040f67b21100b,default,0,662937ce0df27bacdaea0d27e5ccd72d18ed77bfe6af9b74148339b0c5e38509,1216.445891,FALSE,click,testRsp,2957,[],choice-response,In time,64ff6375220cf18479301574,2023-09-11 14:59:00-04:00,add1_90,8994,27,maintaskTrials
64f35663abb040f67b21100b,default,0,662937ce0df27bacdaea0d27e5ccd72d18ed77bfe6af9b74148339b0c5e38509,1216.445891,FALSE,click,testRsp,515,[],choice-response,In time,64ff6375220cf18479301574,2023-09-11 14:59:00-04:00,add1_30,6601,28,maintaskTrials
64f35663abb040f67b21100b,default,0,662937ce0df27bacdaea0d27e5ccd72d18ed77bfe6af9b74148339b0c5e38509,1216.445891,FALSE,click,testRsp,1234,[],choice-response,In time,64ff6375220cf18479301574,2023-09-11 14:59:00-04:00,tone1_120,7263,29,maintaskTrials
64f35663abb040f67b21100b,default,0,662937ce0df27bacdaea0d27e5ccd72d18ed77bfe6af9b74148339b0c5e38509,1216.445891,FALSE,click,testRsp,4720,[],choice-response,Out of time,64ff6375220cf18479301574,2023-09-11 14:59:00-04:00,tone8_90,10779,30,maintaskTrials
64f35663abb040f67b21100b,default,0,662937ce0df27bacdaea0d27e5ccd72d18ed77bfe6af9b74148339b0c5e38509,1216.445891,FALSE,click,testRsp,5301,[],choice-response,Out of time,64ff6375220cf18479301574,2023-09-11 14:59:00-04:00,tone8_0,11327,31,maintaskTrials
64f35663abb040f67b21100b,default,0,662937ce0df27bacdaea0d27e5ccd72d18ed77bfe6af9b74148339b0c5e38509,1216.445891,FALSE,click,testRsp,542,[],choice-response,In time,64ff6375220cf18479301574,2023-09-11 14:59:00-04:00,tone1_0,6840,32,maintaskTrials
64f35663abb040f67b21100b,default,0,662937ce0df27bacdaea0d27e5ccd72d18ed77bfe6af9b74148339b0c5e38509,1216.445891,FALSE,click,testRsp,803,[],choice-response,In time,64ff6375220cf18479301574,2023-09-11 14:59:00-04:00,add8_30,7269,33,maintaskTrials
64f35663abb040f67b21100b,default,0,662937ce0df27bacdaea0d27e5ccd72d18ed77bfe6af9b74148339b0c5e38509,1216.445891,FALSE,click,testRsp,686,[],choice-response,In time,64ff6375220cf18479301574,2023-09-11 14:59:00-04:00,lab1_30,6675,34,maintaskTrials
64f35663abb040f67b21100b,default,0,662937ce0df27bacdaea0d27e5ccd72d18ed77bfe6af9b74148339b0c5e38509,1216.445891,FALSE,click,testRsp,1506,[],choice-response,Out of time,64ff6375220cf18479301574,2023-09-11 14:59:00-04:00,lab1_90,7530,35,maintaskTrials
64f35663abb040f67b21100b,default,0,662937ce0df27bacdaea0d27e5ccd72d18ed77bfe6af9b74148339b0c5e38509,1216.445891,FALSE,click,testRsp,2171,[],choice-response,Out of time,64ff6375220cf18479301574,2023-09-11 14:59:00-04:00,tone1_60,8081,36,maintaskTrials
64f35663abb040f67b21100b,default,0,662937ce0df27bacdaea0d27e5ccd72d18ed77bfe6af9b74148339b0c5e38509,1216.445891,FALSE,click,testRsp,506,[],choice-response,In time,64ff6375220cf18479301574,2023-09-11 14:59:00-04:00,add8_30,6230,37,maintaskTrials
64f35663abb040f67b21100b,default,0,662937ce0df27bacdaea0d27e5ccd72d18ed77bfe6af9b74148339b0c5e38509,1216.445891,FALSE,click,testRsp,590,[],choice-response,In time,64ff6375220cf18479301574,2023-09-11 14:59:00-04:00,tone1_0,6306,38,maintaskTrials
64f35663abb040f67b21100b,default,0,662937ce0df27bacdaea0d27e5ccd72d18ed77bfe6af9b74148339b0c5e38509,1216.445891,FALSE,click,testRsp,982,[],choice-response,Out of time,64ff6375220cf18479301574,2023-09-11 14:59:00-04:00,tone8_0,6708,39,maintaskTrials
64f35663abb040f67b21100b,default,0,662937ce0df27bacdaea0d27e5ccd72d18ed77bfe6af9b74148339b0c5e38509,1216.445891,FALSE,click,testRsp,614,[],choice-response,Out of time,64ff6375220cf18479301574,2023-09-11 14:59:00-04:00,tone1_120,6335,40,maintaskTrials
64f35663abb040f67b21100b,default,0,662937ce0df27bacdaea0d27e5ccd72d18ed77bfe6af9b74148339b0c5e38509,1216.445891,FALSE,click,testRsp,571,[],choice-response,In time,64ff6375220cf18479301574,2023-09-11 14:59:00-04:00,add1_0,6293,41,maintaskTrials
64f35663abb040f67b21100b,default,0,662937ce0df27bacdaea0d27e5ccd72d18ed77bfe6af9b74148339b0c5e38509,1216.445891,FALSE,click,testRsp,511,[],choice-response,Out of time,64ff6375220cf18479301574,2023-09-11 14:59:00-04:00,tone8_60,6230,42,maintaskTrials
64f35663abb040f67b21100b,default,0,662937ce0df27bacdaea0d27e5ccd72d18ed77bfe6af9b74148339b0c5e38509,1216.445891,FALSE,click,testRsp,2706,[],choice-response,Out of time,64ff6375220cf18479301574,2023-09-11 14:59:00-04:00,add1_30,8419,43,maintaskTrials
64f35663abb040f67b21100b,default,0,662937ce0df27bacdaea0d27e5ccd72d18ed77bfe6af9b74148339b0c5e38509,1216.445891,FALSE,click,testRsp,634,[],choice-response,Out of time,64ff6375220cf18479301574,2023-09-11 14:59:00-04:00,add8_60,6355,44,maintaskTrials
64f35663abb040f67b21100b,default,0,662937ce0df27bacdaea0d27e5ccd72d18ed77bfe6af9b74148339b0c5e38509,1216.445891,FALSE,click,testRsp,666,[],choice-response,In time,64ff6375220cf18479301574,2023-09-11 14:59:00-04:00,lab8_90,6391,45,maintaskTrials
64f35663abb040f67b21100b,default,0,662937ce0df27bacdaea0d27e5ccd72d18ed77bfe6af9b74148339b0c5e38509,1216.445891,FALSE,click,testRsp,645,[],choice-response,Out of time,64ff6375220cf18479301574,2023-09-11 14:59:00-04:00,lab8_0,6366,46,maintaskTrials
64f35663abb040f67b21100b,default,0,662937ce0df27bacdaea0d27e5ccd72d18ed77bfe6af9b74148339b0c5e38509,1216.445891,FALSE,click,testRsp,3102,[],choice-response,In time,64ff6375220cf18479301574,2023-09-11 14:59:00-04:00,tone1_60,8827,47,maintaskTrials
64f35663abb040f67b21100b,default,0,662937ce0df27bacdaea0d27e5ccd72d18ed77bfe6af9b74148339b0c5e38509,1216.445891,FALSE,click,testRsp,2024,[],choice-response,Out of time,64ff6375220cf18479301574,2023-09-11 14:59:00-04:00,lab1_120,7745,48,maintaskTrials
64f35663abb040f67b21100b,default,0,662937ce0df27bacdaea0d27e5ccd72d18ed77bfe6af9b74148339b0c5e38509,1216.445891,FALSE,click,testRsp,770,[],choice-response,Out of time,64ff6375220cf18479301574,2023-09-11 14:59:00-04:00,lab1_90,6496,49,maintaskTrials
64f35663abb040f67b21100b,default,0,662937ce0df27bacdaea0d27e5ccd72d18ed77bfe6af9b74148339b0c5e38509,1216.445891,FALSE,click,testRsp,522,[],choice-response,Out of time,64ff6375220cf18479301574,2023-09-11 14:59:00-04:00,add1_120,6244,50,maintaskTrials
64f35663abb040f67b21100b,default,0,662937ce0df27bacdaea0d27e5ccd72d18ed77bfe6af9b74148339b0c5e38509,1216.445891,FALSE,click,testRsp,679,[],choice-response,In time,64ff6375220cf18479301574,2023-09-11 14:59:00-04:00,tone1_90,6398,51,maintaskTrials
64f35663abb040f67b21100b,default,0,662937ce0df27bacdaea0d27e5ccd72d18ed77bfe6af9b74148339b0c5e38509,1216.445891,FALSE,click,testRsp,1564,[],choice-response,Out of time,64ff6375220cf18479301574,2023-09-11 14:59:00-04:00,lab8_120,7286,52,maintaskTrials
64f35663abb040f67b21100b,default,0,662937ce0df27bacdaea0d27e5ccd72d18ed77bfe6af9b74148339b0c5e38509,1216.445891,FALSE,click,testRsp,574,[],choice-response,Out of time,64ff6375220cf18479301574,2023-09-11 14:59:00-04:00,tone8_90,6294,53,maintaskTrials
64f35663abb040f67b21100b,default,0,662937ce0df27bacdaea0d27e5ccd72d18ed77bfe6af9b74148339b0c5e38509,1216.445891,FALSE,click,testRsp,676,[],choice-response,In time,64ff6375220cf18479301574,2023-09-11 14:59:00-04:00,lab1_30,6396,54,maintaskTrials
64f35663abb040f67b21100b,default,0,662937ce0df27bacdaea0d27e5ccd72d18ed77bfe6af9b74148339b0c5e38509,1216.445891,FALSE,click,testRsp,4976,[],choice-response,In time,64ff6375220cf18479301574,2023-09-11 14:59:00-04:00,lab8_60,10695,55,maintaskTrials
64f35663abb040f67b21100b,default,0,662937ce0df27bacdaea0d27e5ccd72d18ed77bfe6af9b74148339b0c5e38509,1216.445891,FALSE,click,testRsp,560,[],choice-response,Out of time,64ff6375220cf18479301574,2023-09-11 14:59:00-04:00,add8_90,6281,56,maintaskTrials
64f35663abb040f67b21100b,default,0,662937ce0df27bacdaea0d27e5ccd72d18ed77bfe6af9b74148339b0c5e38509,1216.445891,FALSE,click,testRsp,826,[],choice-response,Out of time,64ff6375220cf18479301574,2023-09-11 14:59:00-04:00,tone1_30,6549,57,maintaskTrials
64f35663abb040f67b21100b,default,0,662937ce0df27bacdaea0d27e5ccd72d18ed77bfe6af9b74148339b0c5e38509,1216.445891,FALSE,click,testRsp,527,[],choice-response,In time,64ff6375220cf18479301574,2023-09-11 14:59:00-04:00,add1_60,6249,58,maintaskTrials
64f35663abb040f67b21100b,default,0,662937ce0df27bacdaea0d27e5ccd72d18ed77bfe6af9b74148339b0c5e38509,1216.445891,FALSE,click,testRsp,568,[],choice-response,Out of time,64ff6375220cf18479301574,2023-09-11 14:59:00-04:00,add1_90,6288,59,maintaskTrials
64f35663abb040f67b21100b,default,0,662937ce0df27bacdaea0d27e5ccd72d18ed77bfe6af9b74148339b0c5e38509,1216.445891,FALSE,click,testRsp,611,[],choice-response,In time,64ff6375220cf18479301574,2023-09-11 14:59:00-04:00,add8_0,6332,60,maintaskTrials
64f35663abb040f67b21100b,default,0,662937ce0df27bacdaea0d27e5ccd72d18ed77bfe6af9b74148339b0c5e38509,1216.445891,FALSE,click,testRsp,760,[],choice-response,Out of time,64ff6375220cf18479301574,2023-09-11 14:59:00-04:00,tone8_120,6466,61,maintaskTrials
64f35663abb040f67b21100b,default,0,662937ce0df27bacdaea0d27e5ccd72d18ed77bfe6af9b74148339b0c5e38509,1216.445891,FALSE,click,testRsp,697,[],choice-response,In time,64ff6375220cf18479301574,2023-09-11 14:59:00-04:00,lab1_60,6420,62,maintaskTrials
64f35663abb040f67b21100b,default,0,662937ce0df27bacdaea0d27e5ccd72d18ed77bfe6af9b74148339b0c5e38509,1216.445891,FALSE,click,testRsp,573,[],choice-response,Out of time,64ff6375220cf18479301574,2023-09-11 14:59:00-04:00,add8_120,6305,63,maintaskTrials
64f35663abb040f67b21100b,default,0,662937ce0df27bacdaea0d27e5ccd72d18ed77bfe6af9b74148339b0c5e38509,1216.445891,FALSE,click,testRsp,953,[],choice-response,Out of time,64ff6375220cf18479301574,2023-09-11 14:59:00-04:00,tone8_30,6674,64,maintaskTrials
64f35663abb040f67b21100b,default,0,662937ce0df27bacdaea0d27e5ccd72d18ed77bfe6af9b74148339b0c5e38509,1216.445891,FALSE,click,testRsp,1980,[],choice-response,In time,64ff6375220cf18479301574,2023-09-11 14:59:00-04:00,lab8_30,7694,65,maintaskTrials
64f35663abb040f67b21100b,default,0,662937ce0df27bacdaea0d27e5ccd72d18ed77bfe6af9b74148339b0c5e38509,1216.445891,FALSE,click,testRsp,479,[],choice-response,In time,64ff6375220cf18479301574,2023-09-11 14:59:00-04:00,lab1_0,6190,66,maintaskTrials
64f35663abb040f67b21100b,default,0,662937ce0df27bacdaea0d27e5ccd72d18ed77bfe6af9b74148339b0c5e38509,1216.445891,FALSE,click,testRsp,4084,[],choice-response,In time,64ff6375220cf18479301574,2023-09-11 14:59:00-04:00,lab8_90,9800,67,maintaskTrials
64f35663abb040f67b21100b,default,0,662937ce0df27bacdaea0d27e5ccd72d18ed77bfe6af9b74148339b0c5e38509,1216.445891,FALSE,click,testRsp,459,[],choice-response,Out of time,64ff6375220cf18479301574,2023-09-11 14:59:00-04:00,tone1_120,6174,68,maintaskTrials
64f35663abb040f67b21100b,default,0,662937ce0df27bacdaea0d27e5ccd72d18ed77bfe6af9b74148339b0c5e38509,1216.445891,FALSE,click,testRsp,1277,[],choice-response,Out of time,64ff6375220cf18479301574,2023-09-11 14:59:00-04:00,add8_90,6996,69,maintaskTrials
64f35663abb040f67b21100b,default,0,662937ce0df27bacdaea0d27e5ccd72d18ed77bfe6af9b74148339b0c5e38509,1216.445891,FALSE,click,testRsp,10072,[],choice-response,Out of time,64ff6375220cf18479301574,2023-09-11 14:59:00-04:00,add1_90,15790,70,maintaskTrials
64f35663abb040f67b21100b,default,0,662937ce0df27bacdaea0d27e5ccd72d18ed77bfe6af9b74148339b0c5e38509,1216.445891,FALSE,click,testRsp,487,[],choice-response,In time,64ff6375220cf18479301574,2023-09-11 14:59:00-04:00,add8_60,6194,71,maintaskTrials
64f35663abb040f67b21100b,default,0,662937ce0df27bacdaea0d27e5ccd72d18ed77bfe6af9b74148339b0c5e38509,1216.445891,FALSE,click,testRsp,1667,[],choice-response,In time,64ff6375220cf18479301574,2023-09-11 14:59:00-04:00,tone1_30,7384,72,maintaskTrials
64f35663abb040f67b21100b,default,0,662937ce0df27bacdaea0d27e5ccd72d18ed77bfe6af9b74148339b0c5e38509,1216.445891,FALSE,click,testRsp,689,[],choice-response,Out of time,64ff6375220cf18479301574,2023-09-11 14:59:00-04:00,tone8_120,6411,73,maintaskTrials
64f35663abb040f67b21100b,default,0,662937ce0df27bacdaea0d27e5ccd72d18ed77bfe6af9b74148339b0c5e38509,1216.445891,FALSE,click,testRsp,820,[],choice-response,Out of time,64ff6375220cf18479301574,2023-09-11 14:59:00-04:00,lab8_120,6539,74,maintaskTrials
64f35663abb040f67b21100b,default,0,662937ce0df27bacdaea0d27e5ccd72d18ed77bfe6af9b74148339b0c5e38509,1216.445891,FALSE,click,testRsp,964,[],choice-response,In time,64ff6375220cf18479301574,2023-09-11 14:59:00-04:00,tone8_30,6685,75,maintaskTrials
64f35663abb040f67b21100b,default,0,662937ce0df27bacdaea0d27e5ccd72d18ed77bfe6af9b74148339b0c5e38509,1216.445891,FALSE,click,testRsp,542,[],choice-response,In time,64ff6375220cf18479301574,2023-09-11 14:59:00-04:00,tone8_0,6261,76,maintaskTrials
64f35663abb040f67b21100b,default,0,662937ce0df27bacdaea0d27e5ccd72d18ed77bfe6af9b74148339b0c5e38509,1216.445891,FALSE,click,testRsp,510,[],choice-response,In time,64ff6375220cf18479301574,2023-09-11 14:59:00-04:00,tone1_60,6229,77,maintaskTrials
64f35663abb040f67b21100b,default,0,662937ce0df27bacdaea0d27e5ccd72d18ed77bfe6af9b74148339b0c5e38509,1216.445891,FALSE,click,testRsp,782,[],choice-response,In time,64ff6375220cf18479301574,2023-09-11 14:59:00-04:00,add8_30,6505,78,maintaskTrials
64f35663abb040f67b21100b,default,0,662937ce0df27bacdaea0d27e5ccd72d18ed77bfe6af9b74148339b0c5e38509,1216.445891,FALSE,click,testRsp,1369,[],choice-response,In time,64ff6375220cf18479301574,2023-09-11 14:59:00-04:00,lab1_30,7088,79,maintaskTrials
64f35663abb040f67b21100b,default,0,662937ce0df27bacdaea0d27e5ccd72d18ed77bfe6af9b74148339b0c5e38509,1216.445891,FALSE,click,testRsp,767,[],choice-response,In time,64ff6375220cf18479301574,2023-09-11 14:59:00-04:00,add8_0,6487,80,maintaskTrials
64f35663abb040f67b21100b,default,0,662937ce0df27bacdaea0d27e5ccd72d18ed77bfe6af9b74148339b0c5e38509,1216.445891,FALSE,click,testRsp,7265,[],choice-response,Out of time,64ff6375220cf18479301574,2023-09-11 14:59:00-04:00,lab1_90,12986,81,maintaskTrials
64f35663abb040f67b21100b,default,0,662937ce0df27bacdaea0d27e5ccd72d18ed77bfe6af9b74148339b0c5e38509,1216.445891,FALSE,click,testRsp,853,[],choice-response,In time,64ff6375220cf18479301574,2023-09-11 14:59:00-04:00,tone1_0,6572,82,maintaskTrials
64f35663abb040f67b21100b,default,0,662937ce0df27bacdaea0d27e5ccd72d18ed77bfe6af9b74148339b0c5e38509,1216.445891,FALSE,click,testRsp,1708,[],choice-response,In time,64ff6375220cf18479301574,2023-09-11 14:59:00-04:00,add1_60,7443,83,maintaskTrials
64f35663abb040f67b21100b,default,0,662937ce0df27bacdaea0d27e5ccd72d18ed77bfe6af9b74148339b0c5e38509,1216.445891,FALSE,click,testRsp,585,[],choice-response,In time,64ff6375220cf18479301574,2023-09-11 14:59:00-04:00,lab1_0,6298,84,maintaskTrials
64f35663abb040f67b21100b,default,0,662937ce0df27bacdaea0d27e5ccd72d18ed77bfe6af9b74148339b0c5e38509,1216.445891,FALSE,click,testRsp,2272,[],choice-response,In time,64ff6375220cf18479301574,2023-09-11 14:59:00-04:00,tone1_90,8004,85,maintaskTrials
