expt_id,group_id,network_error_repeat,participant_id,participation_duration,response_correct,response_mode,response_name,response_rt,response_target,response_type,response_value,session_id,session_start_time,stimuli_presented,trial_duration,trial_num,trial_template
64f35663abb040f67b21100b,default,0,0bf79103c11bf1bdf58a36cb12a4aca8e4c46e5acde16f932f5214eb76666585,1099.7683391571045,True,keypress,exampleRsp_lab,4852,['Out of time'],choice-response,Out of time,650b27e2f10685b783942468,2023-09-20 13:12:01-04:00,lab8_150,13731,1,example_lab
64f35663abb040f67b21100b,default,0,0bf79103c11bf1bdf58a36cb12a4aca8e4c46e5acde16f932f5214eb76666585,1099.7683391571045,True,keypress,exampleRsp_lab,1913,['Out of time'],choice-response,Out of time,650b27e2f10685b783942468,2023-09-20 13:12:01-04:00,add8_150,10803,2,example_lab
64f35663abb040f67b21100b,default,0,0bf79103c11bf1bdf58a36cb12a4aca8e4c46e5acde16f932f5214eb76666585,1099.7683391571045,True,keypress,exampleRsp_lab,1267,['Out of time'],choice-response,Out of time,650b27e2f10685b783942468,2023-09-20 13:12:01-04:00,add1_150,10156,3,example_lab
64f35663abb040f67b21100b,default,0,0bf79103c11bf1bdf58a36cb12a4aca8e4c46e5acde16f932f5214eb76666585,1099.7683391571045,True,keypress,exampleRsp_lab,1345,['Out of time'],choice-response,Out of time,650b27e2f10685b783942468,2023-09-20 13:12:01-04:00,lab1_150,10123,4,example_lab
64f35663abb040f67b21100b,default,0,0bf79103c11bf1bdf58a36cb12a4aca8e4c46e5acde16f932f5214eb76666585,1099.7683391571045,True,keypress,exampleRsp_tone,1749,['Out of time'],choice-response,Out of time,650b27e2f10685b783942468,2023-09-20 13:12:01-04:00,tone8_150,10526,5,example_tone
64f35663abb040f67b21100b,default,0,0bf79103c11bf1bdf58a36cb12a4aca8e4c46e5acde16f932f5214eb76666585,1099.7683391571045,True,keypress,exampleRsp_tone,749,['Out of time'],choice-response,Out of time,650b27e2f10685b783942468,2023-09-20 13:12:01-04:00,tone1_150,9695,6,example_tone
64f35663abb040f67b21100b,default,0,0bf79103c11bf1bdf58a36cb12a4aca8e4c46e5acde16f932f5214eb76666585,1099.7683391571045,False,keypress,testRsp,2224,[],choice-response,In time,650b27e2f10685b783942468,2023-09-20 13:12:01-04:00,lab8_90,8335,7,maintaskTrials
64f35663abb040f67b21100b,default,0,0bf79103c11bf1bdf58a36cb12a4aca8e4c46e5acde16f932f5214eb76666585,1099.7683391571045,False,keypress,testRsp,952,[],choice-response,Out of time,650b27e2f10685b783942468,2023-09-20 13:12:01-04:00,lab8_30,7035,8,maintaskTrials
64f35663abb040f67b21100b,default,0,0bf79103c11bf1bdf58a36cb12a4aca8e4c46e5acde16f932f5214eb76666585,1099.7683391571045,False,keypress,testRsp,721,[],choice-response,Out of time,650b27e2f10685b783942468,2023-09-20 13:12:01-04:00,tone1_120,6905,9,maintaskTrials
64f35663abb040f67b21100b,default,0,0bf79103c11bf1bdf58a36cb12a4aca8e4c46e5acde16f932f5214eb76666585,1099.7683391571045,False,keypress,testRsp,979,[],choice-response,In time,650b27e2f10685b783942468,2023-09-20 13:12:01-04:00,add1_0,7110,10,maintaskTrials
64f35663abb040f67b21100b,default,0,0bf79103c11bf1bdf58a36cb12a4aca8e4c46e5acde16f932f5214eb76666585,1099.7683391571045,False,keypress,testRsp,784,[],choice-response,In time,650b27e2f10685b783942468,2023-09-20 13:12:01-04:00,tone1_60,6930,11,maintaskTrials
64f35663abb040f67b21100b,default,0,0bf79103c11bf1bdf58a36cb12a4aca8e4c46e5acde16f932f5214eb76666585,1099.7683391571045,False,keypress,testRsp,688,[],choice-response,Out of time,650b27e2f10685b783942468,2023-09-20 13:12:01-04:00,tone8_120,6808,12,maintaskTrials
64f35663abb040f67b21100b,default,0,0bf79103c11bf1bdf58a36cb12a4aca8e4c46e5acde16f932f5214eb76666585,1099.7683391571045,False,keypress,testRsp,2230,[],choice-response,In time,650b27e2f10685b783942468,2023-09-20 13:12:01-04:00,tone8_60,8346,13,maintaskTrials
64f35663abb040f67b21100b,default,0,0bf79103c11bf1bdf58a36cb12a4aca8e4c46e5acde16f932f5214eb76666585,1099.7683391571045,False,keypress,testRsp,1408,[],choice-response,Out of time,650b27e2f10685b783942468,2023-09-20 13:12:01-04:00,tone8_30,7524,14,maintaskTrials
64f35663abb040f67b21100b,default,0,0bf79103c11bf1bdf58a36cb12a4aca8e4c46e5acde16f932f5214eb76666585,1099.7683391571045,False,keypress,testRsp,818,[],choice-response,In time,650b27e2f10685b783942468,2023-09-20 13:12:01-04:00,tone1_0,6866,15,maintaskTrials
64f35663abb040f67b21100b,default,0,0bf79103c11bf1bdf58a36cb12a4aca8e4c46e5acde16f932f5214eb76666585,1099.7683391571045,False,keypress,testRsp,790,[],choice-response,In time,650b27e2f10685b783942468,2023-09-20 13:12:01-04:00,tone8_0,6864,16,maintaskTrials
64f35663abb040f67b21100b,default,0,0bf79103c11bf1bdf58a36cb12a4aca8e4c46e5acde16f932f5214eb76666585,1099.7683391571045,False,keypress,testRsp,680,[],choice-response,In time,650b27e2f10685b783942468,2023-09-20 13:12:01-04:00,lab1_60,6823,17,maintaskTrials
64f35663abb040f67b21100b,default,0,0bf79103c11bf1bdf58a36cb12a4aca8e4c46e5acde16f932f5214eb76666585,1099.7683391571045,False,keypress,testRsp,655,[],choice-response,In time,650b27e2f10685b783942468,2023-09-20 13:12:01-04:00,add8_30,6868,18,maintaskTrials
64f35663abb040f67b21100b,default,0,0bf79103c11bf1bdf58a36cb12a4aca8e4c46e5acde16f932f5214eb76666585,1099.7683391571045,False,keypress,testRsp,637,[],choice-response,In time,650b27e2f10685b783942468,2023-09-20 13:12:01-04:00,lab8_60,6644,19,maintaskTrials
64f35663abb040f67b21100b,default,0,0bf79103c11bf1bdf58a36cb12a4aca8e4c46e5acde16f932f5214eb76666585,1099.7683391571045,False,keypress,testRsp,762,[],choice-response,In time,650b27e2f10685b783942468,2023-09-20 13:12:01-04:00,add1_90,6953,20,maintaskTrials
64f35663abb040f67b21100b,default,0,0bf79103c11bf1bdf58a36cb12a4aca8e4c46e5acde16f932f5214eb76666585,1099.7683391571045,False,keypress,testRsp,607,[],choice-response,In time,650b27e2f10685b783942468,2023-09-20 13:12:01-04:00,lab1_30,7465,21,maintaskTrials
64f35663abb040f67b21100b,default,0,0bf79103c11bf1bdf58a36cb12a4aca8e4c46e5acde16f932f5214eb76666585,1099.7683391571045,False,keypress,testRsp,501,[],choice-response,Out of time,650b27e2f10685b783942468,2023-09-20 13:12:01-04:00,tone8_90,6480,22,maintaskTrials
64f35663abb040f67b21100b,default,0,0bf79103c11bf1bdf58a36cb12a4aca8e4c46e5acde16f932f5214eb76666585,1099.7683391571045,False,keypress,testRsp,830,[],choice-response,Out of time,650b27e2f10685b783942468,2023-09-20 13:12:01-04:00,lab8_0,6863,23,maintaskTrials
64f35663abb040f67b21100b,default,0,0bf79103c11bf1bdf58a36cb12a4aca8e4c46e5acde16f932f5214eb76666585,1099.7683391571045,False,keypress,testRsp,918,[],choice-response,In time,650b27e2f10685b783942468,2023-09-20 13:12:01-04:00,lab8_120,6968,24,maintaskTrials
64f35663abb040f67b21100b,default,0,0bf79103c11bf1bdf58a36cb12a4aca8e4c46e5acde16f932f5214eb76666585,1099.7683391571045,False,keypress,testRsp,694,[],choice-response,Out of time,650b27e2f10685b783942468,2023-09-20 13:12:01-04:00,tone1_90,7311,25,maintaskTrials
64f35663abb040f67b21100b,default,0,0bf79103c11bf1bdf58a36cb12a4aca8e4c46e5acde16f932f5214eb76666585,1099.7683391571045,False,keypress,testRsp,833,[],choice-response,Out of time,650b27e2f10685b783942468,2023-09-20 13:12:01-04:00,add8_120,7033,26,maintaskTrials
64f35663abb040f67b21100b,default,0,0bf79103c11bf1bdf58a36cb12a4aca8e4c46e5acde16f932f5214eb76666585,1099.7683391571045,False,keypress,testRsp,792,[],choice-response,Out of time,650b27e2f10685b783942468,2023-09-20 13:12:01-04:00,add8_60,6822,27,maintaskTrials
64f35663abb040f67b21100b,default,0,0bf79103c11bf1bdf58a36cb12a4aca8e4c46e5acde16f932f5214eb76666585,1099.7683391571045,False,keypress,testRsp,1389,[],choice-response,Out of time,650b27e2f10685b783942468,2023-09-20 13:12:01-04:00,lab1_120,7358,28,maintaskTrials
64f35663abb040f67b21100b,default,0,0bf79103c11bf1bdf58a36cb12a4aca8e4c46e5acde16f932f5214eb76666585,1099.7683391571045,False,keypress,testRsp,455,[],choice-response,Out of time,650b27e2f10685b783942468,2023-09-20 13:12:01-04:00,lab1_0,6632,29,maintaskTrials
64f35663abb040f67b21100b,default,0,0bf79103c11bf1bdf58a36cb12a4aca8e4c46e5acde16f932f5214eb76666585,1099.7683391571045,False,keypress,testRsp,672,[],choice-response,In time,650b27e2f10685b783942468,2023-09-20 13:12:01-04:00,lab1_90,7545,30,maintaskTrials
64f35663abb040f67b21100b,default,0,0bf79103c11bf1bdf58a36cb12a4aca8e4c46e5acde16f932f5214eb76666585,1099.7683391571045,False,keypress,testRsp,1422,[],choice-response,In time,650b27e2f10685b783942468,2023-09-20 13:12:01-04:00,add8_0,7420,31,maintaskTrials
64f35663abb040f67b21100b,default,0,0bf79103c11bf1bdf58a36cb12a4aca8e4c46e5acde16f932f5214eb76666585,1099.7683391571045,False,keypress,testRsp,1249,[],choice-response,In time,650b27e2f10685b783942468,2023-09-20 13:12:01-04:00,tone1_30,7734,32,maintaskTrials
64f35663abb040f67b21100b,default,0,0bf79103c11bf1bdf58a36cb12a4aca8e4c46e5acde16f932f5214eb76666585,1099.7683391571045,False,keypress,testRsp,713,[],choice-response,Out of time,650b27e2f10685b783942468,2023-09-20 13:12:01-04:00,add8_90,6708,33,maintaskTrials
64f35663abb040f67b21100b,default,0,0bf79103c11bf1bdf58a36cb12a4aca8e4c46e5acde16f932f5214eb76666585,1099.7683391571045,False,keypress,testRsp,734,[],choice-response,Out of time,650b27e2f10685b783942468,2023-09-20 13:12:01-04:00,add1_120,6766,34,maintaskTrials
64f35663abb040f67b21100b,default,0,0bf79103c11bf1bdf58a36cb12a4aca8e4c46e5acde16f932f5214eb76666585,1099.7683391571045,False,keypress,testRsp,974,[],choice-response,In time,650b27e2f10685b783942468,2023-09-20 13:12:01-04:00,add1_60,7239,35,maintaskTrials
64f35663abb040f67b21100b,default,0,0bf79103c11bf1bdf58a36cb12a4aca8e4c46e5acde16f932f5214eb76666585,1099.7683391571045,False,keypress,testRsp,891,[],choice-response,In time,650b27e2f10685b783942468,2023-09-20 13:12:01-04:00,add1_30,6912,36,maintaskTrials
64f35663abb040f67b21100b,default,0,0bf79103c11bf1bdf58a36cb12a4aca8e4c46e5acde16f932f5214eb76666585,1099.7683391571045,False,keypress,testRsp,493,[],choice-response,In time,650b27e2f10685b783942468,2023-09-20 13:12:01-04:00,add8_30,5922,37,maintaskTrials
64f35663abb040f67b21100b,default,0,0bf79103c11bf1bdf58a36cb12a4aca8e4c46e5acde16f932f5214eb76666585,1099.7683391571045,False,keypress,testRsp,474,[],choice-response,In time,650b27e2f10685b783942468,2023-09-20 13:12:01-04:00,lab8_60,5909,38,maintaskTrials
64f35663abb040f67b21100b,default,0,0bf79103c11bf1bdf58a36cb12a4aca8e4c46e5acde16f932f5214eb76666585,1099.7683391571045,False,keypress,testRsp,508,[],choice-response,Out of time,650b27e2f10685b783942468,2023-09-20 13:12:01-04:00,tone1_120,5949,39,maintaskTrials
64f35663abb040f67b21100b,default,0,0bf79103c11bf1bdf58a36cb12a4aca8e4c46e5acde16f932f5214eb76666585,1099.7683391571045,False,keypress,testRsp,710,[],choice-response,In time,650b27e2f10685b783942468,2023-09-20 13:12:01-04:00,lab8_30,6138,40,maintaskTrials
64f35663abb040f67b21100b,default,0,0bf79103c11bf1bdf58a36cb12a4aca8e4c46e5acde16f932f5214eb76666585,1099.7683391571045,False,keypress,testRsp,1199,[],choice-response,In time,650b27e2f10685b783942468,2023-09-20 13:12:01-04:00,tone8_30,6626,41,maintaskTrials
64f35663abb040f67b21100b,default,0,0bf79103c11bf1bdf58a36cb12a4aca8e4c46e5acde16f932f5214eb76666585,1099.7683391571045,False,keypress,testRsp,720,[],choice-response,In time,650b27e2f10685b783942468,2023-09-20 13:12:01-04:00,add8_60,6144,42,maintaskTrials
64f35663abb040f67b21100b,default,0,0bf79103c11bf1bdf58a36cb12a4aca8e4c46e5acde16f932f5214eb76666585,1099.7683391571045,False,keypress,testRsp,882,[],choice-response,Out of time,650b27e2f10685b783942468,2023-09-20 13:12:01-04:00,add1_120,6289,43,maintaskTrials
64f35663abb040f67b21100b,default,0,0bf79103c11bf1bdf58a36cb12a4aca8e4c46e5acde16f932f5214eb76666585,1099.7683391571045,False,keypress,testRsp,515,[],choice-response,In time,650b27e2f10685b783942468,2023-09-20 13:12:01-04:00,add8_0,5946,44,maintaskTrials
64f35663abb040f67b21100b,default,0,0bf79103c11bf1bdf58a36cb12a4aca8e4c46e5acde16f932f5214eb76666585,1099.7683391571045,False,keypress,testRsp,2393,[],choice-response,In time,650b27e2f10685b783942468,2023-09-20 13:12:01-04:00,tone8_90,7823,45,maintaskTrials
64f35663abb040f67b21100b,default,0,0bf79103c11bf1bdf58a36cb12a4aca8e4c46e5acde16f932f5214eb76666585,1099.7683391571045,False,keypress,testRsp,1191,[],choice-response,In time,650b27e2f10685b783942468,2023-09-20 13:12:01-04:00,tone8_60,6623,46,maintaskTrials
64f35663abb040f67b21100b,default,0,0bf79103c11bf1bdf58a36cb12a4aca8e4c46e5acde16f932f5214eb76666585,1099.7683391571045,False,keypress,testRsp,1297,[],choice-response,Out of time,650b27e2f10685b783942468,2023-09-20 13:12:01-04:00,tone8_120,6720,47,maintaskTrials
64f35663abb040f67b21100b,default,0,0bf79103c11bf1bdf58a36cb12a4aca8e4c46e5acde16f932f5214eb76666585,1099.7683391571045,False,keypress,testRsp,899,[],choice-response,In time,650b27e2f10685b783942468,2023-09-20 13:12:01-04:00,lab1_0,6326,48,maintaskTrials
64f35663abb040f67b21100b,default,0,0bf79103c11bf1bdf58a36cb12a4aca8e4c46e5acde16f932f5214eb76666585,1099.7683391571045,False,keypress,testRsp,829,[],choice-response,Out of time,650b27e2f10685b783942468,2023-09-20 13:12:01-04:00,tone8_0,6253,49,maintaskTrials
64f35663abb040f67b21100b,default,0,0bf79103c11bf1bdf58a36cb12a4aca8e4c46e5acde16f932f5214eb76666585,1099.7683391571045,False,keypress,testRsp,680,[],choice-response,In time,650b27e2f10685b783942468,2023-09-20 13:12:01-04:00,add1_0,6107,50,maintaskTrials
64f35663abb040f67b21100b,default,0,0bf79103c11bf1bdf58a36cb12a4aca8e4c46e5acde16f932f5214eb76666585,1099.7683391571045,False,keypress,testRsp,1297,[],choice-response,In time,650b27e2f10685b783942468,2023-09-20 13:12:01-04:00,lab1_60,6713,51,maintaskTrials
64f35663abb040f67b21100b,default,0,0bf79103c11bf1bdf58a36cb12a4aca8e4c46e5acde16f932f5214eb76666585,1099.7683391571045,False,keypress,testRsp,734,[],choice-response,In time,650b27e2f10685b783942468,2023-09-20 13:12:01-04:00,add1_30,6164,52,maintaskTrials
64f35663abb040f67b21100b,default,0,0bf79103c11bf1bdf58a36cb12a4aca8e4c46e5acde16f932f5214eb76666585,1099.7683391571045,False,keypress,testRsp,455,[],choice-response,In time,650b27e2f10685b783942468,2023-09-20 13:12:01-04:00,lab1_30,5891,53,maintaskTrials
64f35663abb040f67b21100b,default,0,0bf79103c11bf1bdf58a36cb12a4aca8e4c46e5acde16f932f5214eb76666585,1099.7683391571045,False,keypress,testRsp,964,[],choice-response,Out of time,650b27e2f10685b783942468,2023-09-20 13:12:01-04:00,add8_90,6398,54,maintaskTrials
64f35663abb040f67b21100b,default,0,0bf79103c11bf1bdf58a36cb12a4aca8e4c46e5acde16f932f5214eb76666585,1099.7683391571045,False,keypress,testRsp,682,[],choice-response,Out of time,650b27e2f10685b783942468,2023-09-20 13:12:01-04:00,add1_90,6111,55,maintaskTrials
64f35663abb040f67b21100b,default,0,0bf79103c11bf1bdf58a36cb12a4aca8e4c46e5acde16f932f5214eb76666585,1099.7683391571045,False,keypress,testRsp,1580,[],choice-response,Out of time,650b27e2f10685b783942468,2023-09-20 13:12:01-04:00,tone1_60,7009,56,maintaskTrials
64f35663abb040f67b21100b,default,0,0bf79103c11bf1bdf58a36cb12a4aca8e4c46e5acde16f932f5214eb76666585,1099.7683391571045,False,keypress,testRsp,1203,[],choice-response,Out of time,650b27e2f10685b783942468,2023-09-20 13:12:01-04:00,lab1_120,6628,57,maintaskTrials
64f35663abb040f67b21100b,default,0,0bf79103c11bf1bdf58a36cb12a4aca8e4c46e5acde16f932f5214eb76666585,1099.7683391571045,False,keypress,testRsp,1504,[],choice-response,Out of time,650b27e2f10685b783942468,2023-09-20 13:12:01-04:00,tone1_90,6930,58,maintaskTrials
64f35663abb040f67b21100b,default,0,0bf79103c11bf1bdf58a36cb12a4aca8e4c46e5acde16f932f5214eb76666585,1099.7683391571045,False,keypress,testRsp,1392,[],choice-response,Out of time,650b27e2f10685b783942468,2023-09-20 13:12:01-04:00,add1_60,6846,59,maintaskTrials
64f35663abb040f67b21100b,default,0,0bf79103c11bf1bdf58a36cb12a4aca8e4c46e5acde16f932f5214eb76666585,1099.7683391571045,False,keypress,testRsp,1045,[],choice-response,In time,650b27e2f10685b783942468,2023-09-20 13:12:01-04:00,lab8_90,6474,60,maintaskTrials
64f35663abb040f67b21100b,default,0,0bf79103c11bf1bdf58a36cb12a4aca8e4c46e5acde16f932f5214eb76666585,1099.7683391571045,False,keypress,testRsp,828,[],choice-response,In time,650b27e2f10685b783942468,2023-09-20 13:12:01-04:00,lab1_90,6255,61,maintaskTrials
64f35663abb040f67b21100b,default,0,0bf79103c11bf1bdf58a36cb12a4aca8e4c46e5acde16f932f5214eb76666585,1099.7683391571045,False,keypress,testRsp,805,[],choice-response,In time,650b27e2f10685b783942468,2023-09-20 13:12:01-04:00,tone1_0,6227,62,maintaskTrials
64f35663abb040f67b21100b,default,0,0bf79103c11bf1bdf58a36cb12a4aca8e4c46e5acde16f932f5214eb76666585,1099.7683391571045,False,keypress,testRsp,4576,[],choice-response,In time,650b27e2f10685b783942468,2023-09-20 13:12:01-04:00,lab8_120,10006,63,maintaskTrials
64f35663abb040f67b21100b,default,0,0bf79103c11bf1bdf58a36cb12a4aca8e4c46e5acde16f932f5214eb76666585,1099.7683391571045,False,keypress,testRsp,1026,[],choice-response,In time,650b27e2f10685b783942468,2023-09-20 13:12:01-04:00,tone1_30,6449,64,maintaskTrials
64f35663abb040f67b21100b,default,0,0bf79103c11bf1bdf58a36cb12a4aca8e4c46e5acde16f932f5214eb76666585,1099.7683391571045,False,keypress,testRsp,1456,[],choice-response,Out of time,650b27e2f10685b783942468,2023-09-20 13:12:01-04:00,lab8_0,6887,65,maintaskTrials
64f35663abb040f67b21100b,default,0,0bf79103c11bf1bdf58a36cb12a4aca8e4c46e5acde16f932f5214eb76666585,1099.7683391571045,False,keypress,testRsp,655,[],choice-response,Out of time,650b27e2f10685b783942468,2023-09-20 13:12:01-04:00,add8_120,6094,66,maintaskTrials
64f35663abb040f67b21100b,default,0,0bf79103c11bf1bdf58a36cb12a4aca8e4c46e5acde16f932f5214eb76666585,1099.7683391571045,False,keypress,testRsp,645,[],choice-response,In time,650b27e2f10685b783942468,2023-09-20 13:12:01-04:00,tone8_60,6075,67,maintaskTrials
64f35663abb040f67b21100b,default,0,0bf79103c11bf1bdf58a36cb12a4aca8e4c46e5acde16f932f5214eb76666585,1099.7683391571045,False,keypress,testRsp,745,[],choice-response,In time,650b27e2f10685b783942468,2023-09-20 13:12:01-04:00,lab1_0,6151,68,maintaskTrials
64f35663abb040f67b21100b,default,0,0bf79103c11bf1bdf58a36cb12a4aca8e4c46e5acde16f932f5214eb76666585,1099.7683391571045,False,keypress,testRsp,619,[],choice-response,Out of time,650b27e2f10685b783942468,2023-09-20 13:12:01-04:00,tone1_60,6055,69,maintaskTrials
64f35663abb040f67b21100b,default,0,0bf79103c11bf1bdf58a36cb12a4aca8e4c46e5acde16f932f5214eb76666585,1099.7683391571045,False,keypress,testRsp,816,[],choice-response,Out of time,650b27e2f10685b783942468,2023-09-20 13:12:01-04:00,add1_120,6246,70,maintaskTrials
64f35663abb040f67b21100b,default,0,0bf79103c11bf1bdf58a36cb12a4aca8e4c46e5acde16f932f5214eb76666585,1099.7683391571045,False,keypress,testRsp,527,[],choice-response,In time,650b27e2f10685b783942468,2023-09-20 13:12:01-04:00,lab1_90,5956,71,maintaskTrials
64f35663abb040f67b21100b,default,0,0bf79103c11bf1bdf58a36cb12a4aca8e4c46e5acde16f932f5214eb76666585,1099.7683391571045,False,keypress,testRsp,728,[],choice-response,Out of time,650b27e2f10685b783942468,2023-09-20 13:12:01-04:00,tone1_120,6158,72,maintaskTrials
64f35663abb040f67b21100b,default,0,0bf79103c11bf1bdf58a36cb12a4aca8e4c46e5acde16f932f5214eb76666585,1099.7683391571045,False,keypress,testRsp,628,[],choice-response,In time,650b27e2f10685b783942468,2023-09-20 13:12:01-04:00,add1_90,6052,73,maintaskTrials
64f35663abb040f67b21100b,default,0,0bf79103c11bf1bdf58a36cb12a4aca8e4c46e5acde16f932f5214eb76666585,1099.7683391571045,False,keypress,testRsp,613,[],choice-response,In time,650b27e2f10685b783942468,2023-09-20 13:12:01-04:00,tone8_30,6047,74,maintaskTrials
64f35663abb040f67b21100b,default,0,0bf79103c11bf1bdf58a36cb12a4aca8e4c46e5acde16f932f5214eb76666585,1099.7683391571045,False,keypress,testRsp,815,[],choice-response,Out of time,650b27e2f10685b783942468,2023-09-20 13:12:01-04:00,lab8_0,6244,75,maintaskTrials
64f35663abb040f67b21100b,default,0,0bf79103c11bf1bdf58a36cb12a4aca8e4c46e5acde16f932f5214eb76666585,1099.7683391571045,False,keypress,testRsp,937,[],choice-response,In time,650b27e2f10685b783942468,2023-09-20 13:12:01-04:00,lab1_30,6364,76,maintaskTrials
64f35663abb040f67b21100b,default,0,0bf79103c11bf1bdf58a36cb12a4aca8e4c46e5acde16f932f5214eb76666585,1099.7683391571045,False,keypress,testRsp,940,[],choice-response,In time,650b27e2f10685b783942468,2023-09-20 13:12:01-04:00,add1_0,6369,77,maintaskTrials
64f35663abb040f67b21100b,default,0,0bf79103c11bf1bdf58a36cb12a4aca8e4c46e5acde16f932f5214eb76666585,1099.7683391571045,False,keypress,testRsp,659,[],choice-response,In time,650b27e2f10685b783942468,2023-09-20 13:12:01-04:00,add1_30,6118,78,maintaskTrials
64f35663abb040f67b21100b,default,0,0bf79103c11bf1bdf58a36cb12a4aca8e4c46e5acde16f932f5214eb76666585,1099.7683391571045,False,keypress,testRsp,617,[],choice-response,In time,650b27e2f10685b783942468,2023-09-20 13:12:01-04:00,tone1_30,6042,79,maintaskTrials
64f35663abb040f67b21100b,default,0,0bf79103c11bf1bdf58a36cb12a4aca8e4c46e5acde16f932f5214eb76666585,1099.7683391571045,False,keypress,testRsp,520,[],choice-response,In time,650b27e2f10685b783942468,2023-09-20 13:12:01-04:00,tone8_90,5923,80,maintaskTrials
64f35663abb040f67b21100b,default,0,0bf79103c11bf1bdf58a36cb12a4aca8e4c46e5acde16f932f5214eb76666585,1099.7683391571045,False,keypress,testRsp,409,[],choice-response,In time,650b27e2f10685b783942468,2023-09-20 13:12:01-04:00,lab1_120,5835,81,maintaskTrials
64f35663abb040f67b21100b,default,0,0bf79103c11bf1bdf58a36cb12a4aca8e4c46e5acde16f932f5214eb76666585,1099.7683391571045,False,keypress,testRsp,535,[],choice-response,In time,650b27e2f10685b783942468,2023-09-20 13:12:01-04:00,add8_0,5943,82,maintaskTrials
64f35663abb040f67b21100b,default,0,0bf79103c11bf1bdf58a36cb12a4aca8e4c46e5acde16f932f5214eb76666585,1099.7683391571045,False,keypress,testRsp,1454,[],choice-response,In time,650b27e2f10685b783942468,2023-09-20 13:12:01-04:00,lab8_30,7202,83,maintaskTrials
64f35663abb040f67b21100b,default,0,0bf79103c11bf1bdf58a36cb12a4aca8e4c46e5acde16f932f5214eb76666585,1099.7683391571045,False,keypress,testRsp,662,[],choice-response,In time,650b27e2f10685b783942468,2023-09-20 13:12:01-04:00,add8_60,6103,84,maintaskTrials
64f35663abb040f67b21100b,default,0,0bf79103c11bf1bdf58a36cb12a4aca8e4c46e5acde16f932f5214eb76666585,1099.7683391571045,False,keypress,testRsp,808,[],choice-response,In time,650b27e2f10685b783942468,2023-09-20 13:12:01-04:00,lab8_90,6238,85,maintaskTrials
64f35663abb040f67b21100b,default,0,0bf79103c11bf1bdf58a36cb12a4aca8e4c46e5acde16f932f5214eb76666585,1099.7683391571045,False,keypress,testRsp,1024,[],choice-response,In time,650b27e2f10685b783942468,2023-09-20 13:12:01-04:00,add8_90,6451,86,maintaskTrials
64f35663abb040f67b21100b,default,0,0bf79103c11bf1bdf58a36cb12a4aca8e4c46e5acde16f932f5214eb76666585,1099.7683391571045,False,keypress,testRsp,668,[],choice-response,In time,650b27e2f10685b783942468,2023-09-20 13:12:01-04:00,tone1_0,6093,87,maintaskTrials
64f35663abb040f67b21100b,default,0,0bf79103c11bf1bdf58a36cb12a4aca8e4c46e5acde16f932f5214eb76666585,1099.7683391571045,False,keypress,testRsp,705,[],choice-response,In time,650b27e2f10685b783942468,2023-09-20 13:12:01-04:00,lab8_60,6134,88,maintaskTrials
64f35663abb040f67b21100b,default,0,0bf79103c11bf1bdf58a36cb12a4aca8e4c46e5acde16f932f5214eb76666585,1099.7683391571045,False,keypress,testRsp,731,[],choice-response,In time,650b27e2f10685b783942468,2023-09-20 13:12:01-04:00,lab1_60,6156,89,maintaskTrials
64f35663abb040f67b21100b,default,0,0bf79103c11bf1bdf58a36cb12a4aca8e4c46e5acde16f932f5214eb76666585,1099.7683391571045,False,keypress,testRsp,427,[],choice-response,In time,650b27e2f10685b783942468,2023-09-20 13:12:01-04:00,lab8_120,5854,90,maintaskTrials
64f35663abb040f67b21100b,default,0,0bf79103c11bf1bdf58a36cb12a4aca8e4c46e5acde16f932f5214eb76666585,1099.7683391571045,False,keypress,testRsp,551,[],choice-response,In time,650b27e2f10685b783942468,2023-09-20 13:12:01-04:00,add8_30,5988,91,maintaskTrials
64f35663abb040f67b21100b,default,0,0bf79103c11bf1bdf58a36cb12a4aca8e4c46e5acde16f932f5214eb76666585,1099.7683391571045,False,keypress,testRsp,2938,[],choice-response,In time,650b27e2f10685b783942468,2023-09-20 13:12:01-04:00,tone8_120,8364,92,maintaskTrials
64f35663abb040f67b21100b,default,0,0bf79103c11bf1bdf58a36cb12a4aca8e4c46e5acde16f932f5214eb76666585,1099.7683391571045,False,keypress,testRsp,687,[],choice-response,In time,650b27e2f10685b783942468,2023-09-20 13:12:01-04:00,add1_60,6114,93,maintaskTrials
64f35663abb040f67b21100b,default,0,0bf79103c11bf1bdf58a36cb12a4aca8e4c46e5acde16f932f5214eb76666585,1099.7683391571045,False,keypress,testRsp,537,[],choice-response,In time,650b27e2f10685b783942468,2023-09-20 13:12:01-04:00,tone8_0,5957,94,maintaskTrials
64f35663abb040f67b21100b,default,0,0bf79103c11bf1bdf58a36cb12a4aca8e4c46e5acde16f932f5214eb76666585,1099.7683391571045,False,keypress,testRsp,359,[],choice-response,Out of time,650b27e2f10685b783942468,2023-09-20 13:12:01-04:00,add8_120,5794,95,maintaskTrials
64f35663abb040f67b21100b,default,0,0bf79103c11bf1bdf58a36cb12a4aca8e4c46e5acde16f932f5214eb76666585,1099.7683391571045,False,keypress,testRsp,1044,[],choice-response,In time,650b27e2f10685b783942468,2023-09-20 13:12:01-04:00,tone1_90,6473,96,maintaskTrials
64f35663abb040f67b21100b,default,0,0bf79103c11bf1bdf58a36cb12a4aca8e4c46e5acde16f932f5214eb76666585,1099.7683391571045,False,keypress,testRsp,478,[],choice-response,Out of time,650b27e2f10685b783942468,2023-09-20 13:12:01-04:00,lab1_120,5881,97,maintaskTrials
64f35663abb040f67b21100b,default,0,0bf79103c11bf1bdf58a36cb12a4aca8e4c46e5acde16f932f5214eb76666585,1099.7683391571045,False,keypress,testRsp,506,[],choice-response,In time,650b27e2f10685b783942468,2023-09-20 13:12:01-04:00,lab1_30,5932,98,maintaskTrials
64f35663abb040f67b21100b,default,0,0bf79103c11bf1bdf58a36cb12a4aca8e4c46e5acde16f932f5214eb76666585,1099.7683391571045,False,keypress,testRsp,490,[],choice-response,Out of time,650b27e2f10685b783942468,2023-09-20 13:12:01-04:00,add1_90,5917,99,maintaskTrials
64f35663abb040f67b21100b,default,0,0bf79103c11bf1bdf58a36cb12a4aca8e4c46e5acde16f932f5214eb76666585,1099.7683391571045,False,keypress,testRsp,725,[],choice-response,In time,650b27e2f10685b783942468,2023-09-20 13:12:01-04:00,lab1_90,6147,100,maintaskTrials
64f35663abb040f67b21100b,default,0,0bf79103c11bf1bdf58a36cb12a4aca8e4c46e5acde16f932f5214eb76666585,1099.7683391571045,False,keypress,testRsp,533,[],choice-response,In time,650b27e2f10685b783942468,2023-09-20 13:12:01-04:00,tone8_0,5964,101,maintaskTrials
64f35663abb040f67b21100b,default,0,0bf79103c11bf1bdf58a36cb12a4aca8e4c46e5acde16f932f5214eb76666585,1099.7683391571045,False,keypress,testRsp,1376,[],choice-response,In time,650b27e2f10685b783942468,2023-09-20 13:12:01-04:00,add1_60,6798,102,maintaskTrials
64f35663abb040f67b21100b,default,0,0bf79103c11bf1bdf58a36cb12a4aca8e4c46e5acde16f932f5214eb76666585,1099.7683391571045,False,keypress,testRsp,663,[],choice-response,Out of time,650b27e2f10685b783942468,2023-09-20 13:12:01-04:00,add8_120,6091,103,maintaskTrials
64f35663abb040f67b21100b,default,0,0bf79103c11bf1bdf58a36cb12a4aca8e4c46e5acde16f932f5214eb76666585,1099.7683391571045,False,keypress,testRsp,414,[],choice-response,In time,650b27e2f10685b783942468,2023-09-20 13:12:01-04:00,add8_0,5838,104,maintaskTrials
64f35663abb040f67b21100b,default,0,0bf79103c11bf1bdf58a36cb12a4aca8e4c46e5acde16f932f5214eb76666585,1099.7683391571045,False,keypress,testRsp,500,[],choice-response,Out of time,650b27e2f10685b783942468,2023-09-20 13:12:01-04:00,add1_120,5928,105,maintaskTrials
64f35663abb040f67b21100b,default,0,0bf79103c11bf1bdf58a36cb12a4aca8e4c46e5acde16f932f5214eb76666585,1099.7683391571045,False,keypress,testRsp,569,[],choice-response,In time,650b27e2f10685b783942468,2023-09-20 13:12:01-04:00,lab8_60,6004,106,maintaskTrials
64f35663abb040f67b21100b,default,0,0bf79103c11bf1bdf58a36cb12a4aca8e4c46e5acde16f932f5214eb76666585,1099.7683391571045,False,keypress,testRsp,1080,[],choice-response,In time,650b27e2f10685b783942468,2023-09-20 13:12:01-04:00,lab1_0,6488,107,maintaskTrials
64f35663abb040f67b21100b,default,0,0bf79103c11bf1bdf58a36cb12a4aca8e4c46e5acde16f932f5214eb76666585,1099.7683391571045,False,keypress,testRsp,577,[],choice-response,In time,650b27e2f10685b783942468,2023-09-20 13:12:01-04:00,lab8_90,5986,108,maintaskTrials
64f35663abb040f67b21100b,default,0,0bf79103c11bf1bdf58a36cb12a4aca8e4c46e5acde16f932f5214eb76666585,1099.7683391571045,False,keypress,testRsp,632,[],choice-response,In time,650b27e2f10685b783942468,2023-09-20 13:12:01-04:00,tone8_30,6060,109,maintaskTrials
64f35663abb040f67b21100b,default,0,0bf79103c11bf1bdf58a36cb12a4aca8e4c46e5acde16f932f5214eb76666585,1099.7683391571045,False,keypress,testRsp,524,[],choice-response,In time,650b27e2f10685b783942468,2023-09-20 13:12:01-04:00,add8_30,5951,110,maintaskTrials
64f35663abb040f67b21100b,default,0,0bf79103c11bf1bdf58a36cb12a4aca8e4c46e5acde16f932f5214eb76666585,1099.7683391571045,False,keypress,testRsp,394,[],choice-response,Out of time,650b27e2f10685b783942468,2023-09-20 13:12:01-04:00,tone1_90,5856,111,maintaskTrials
64f35663abb040f67b21100b,default,0,0bf79103c11bf1bdf58a36cb12a4aca8e4c46e5acde16f932f5214eb76666585,1099.7683391571045,False,keypress,testRsp,461,[],choice-response,Out of time,650b27e2f10685b783942468,2023-09-20 13:12:01-04:00,tone8_120,5888,112,maintaskTrials
64f35663abb040f67b21100b,default,0,0bf79103c11bf1bdf58a36cb12a4aca8e4c46e5acde16f932f5214eb76666585,1099.7683391571045,False,keypress,testRsp,623,[],choice-response,In time,650b27e2f10685b783942468,2023-09-20 13:12:01-04:00,tone1_0,6045,113,maintaskTrials
64f35663abb040f67b21100b,default,0,0bf79103c11bf1bdf58a36cb12a4aca8e4c46e5acde16f932f5214eb76666585,1099.7683391571045,False,keypress,testRsp,1412,[],choice-response,In time,650b27e2f10685b783942468,2023-09-20 13:12:01-04:00,lab8_30,6841,114,maintaskTrials
64f35663abb040f67b21100b,default,0,0bf79103c11bf1bdf58a36cb12a4aca8e4c46e5acde16f932f5214eb76666585,1099.7683391571045,False,keypress,testRsp,755,[],choice-response,In time,650b27e2f10685b783942468,2023-09-20 13:12:01-04:00,lab8_120,6182,115,maintaskTrials
64f35663abb040f67b21100b,default,0,0bf79103c11bf1bdf58a36cb12a4aca8e4c46e5acde16f932f5214eb76666585,1099.7683391571045,False,keypress,testRsp,670,[],choice-response,Out of time,650b27e2f10685b783942468,2023-09-20 13:12:01-04:00,tone1_120,6182,116,maintaskTrials
64f35663abb040f67b21100b,default,0,0bf79103c11bf1bdf58a36cb12a4aca8e4c46e5acde16f932f5214eb76666585,1099.7683391571045,False,keypress,testRsp,557,[],choice-response,In time,650b27e2f10685b783942468,2023-09-20 13:12:01-04:00,tone1_30,6026,117,maintaskTrials
64f35663abb040f67b21100b,default,0,0bf79103c11bf1bdf58a36cb12a4aca8e4c46e5acde16f932f5214eb76666585,1099.7683391571045,False,keypress,testRsp,652,[],choice-response,In time,650b27e2f10685b783942468,2023-09-20 13:12:01-04:00,add1_30,6079,118,maintaskTrials
64f35663abb040f67b21100b,default,0,0bf79103c11bf1bdf58a36cb12a4aca8e4c46e5acde16f932f5214eb76666585,1099.7683391571045,False,keypress,testRsp,695,[],choice-response,In time,650b27e2f10685b783942468,2023-09-20 13:12:01-04:00,add1_0,6118,119,maintaskTrials
64f35663abb040f67b21100b,default,0,0bf79103c11bf1bdf58a36cb12a4aca8e4c46e5acde16f932f5214eb76666585,1099.7683391571045,False,keypress,testRsp,542,[],choice-response,Out of time,650b27e2f10685b783942468,2023-09-20 13:12:01-04:00,tone8_90,5968,120,maintaskTrials
64f35663abb040f67b21100b,default,0,0bf79103c11bf1bdf58a36cb12a4aca8e4c46e5acde16f932f5214eb76666585,1099.7683391571045,False,keypress,testRsp,471,[],choice-response,Out of time,650b27e2f10685b783942468,2023-09-20 13:12:01-04:00,add8_90,5912,121,maintaskTrials
64f35663abb040f67b21100b,default,0,0bf79103c11bf1bdf58a36cb12a4aca8e4c46e5acde16f932f5214eb76666585,1099.7683391571045,False,keypress,testRsp,696,[],choice-response,In time,650b27e2f10685b783942468,2023-09-20 13:12:01-04:00,lab1_60,6150,122,maintaskTrials
64f35663abb040f67b21100b,default,0,0bf79103c11bf1bdf58a36cb12a4aca8e4c46e5acde16f932f5214eb76666585,1099.7683391571045,False,keypress,testRsp,1733,[],choice-response,In time,650b27e2f10685b783942468,2023-09-20 13:12:01-04:00,tone8_60,7153,123,maintaskTrials
64f35663abb040f67b21100b,default,0,0bf79103c11bf1bdf58a36cb12a4aca8e4c46e5acde16f932f5214eb76666585,1099.7683391571045,False,keypress,testRsp,814,[],choice-response,Out of time,650b27e2f10685b783942468,2023-09-20 13:12:01-04:00,tone1_60,6285,124,maintaskTrials
64f35663abb040f67b21100b,default,0,0bf79103c11bf1bdf58a36cb12a4aca8e4c46e5acde16f932f5214eb76666585,1099.7683391571045,False,keypress,testRsp,483,[],choice-response,Out of time,650b27e2f10685b783942468,2023-09-20 13:12:01-04:00,lab8_0,5944,125,maintaskTrials
64f35663abb040f67b21100b,default,0,0bf79103c11bf1bdf58a36cb12a4aca8e4c46e5acde16f932f5214eb76666585,1099.7683391571045,False,keypress,testRsp,442,[],choice-response,Out of time,650b27e2f10685b783942468,2023-09-20 13:12:01-04:00,add8_60,5868,126,maintaskTrials
64f35663abb040f67b21100b,default,0,0bf79103c11bf1bdf58a36cb12a4aca8e4c46e5acde16f932f5214eb76666585,1099.7683391571045,False,keypress,testRsp,468,[],choice-response,Out of time,650b27e2f10685b783942468,2023-09-20 13:12:01-04:00,tone1_120,5895,127,maintaskTrials
64f35663abb040f67b21100b,default,0,0bf79103c11bf1bdf58a36cb12a4aca8e4c46e5acde16f932f5214eb76666585,1099.7683391571045,False,keypress,testRsp,515,[],choice-response,In time,650b27e2f10685b783942468,2023-09-20 13:12:01-04:00,tone8_0,5953,128,maintaskTrials
64f35663abb040f67b21100b,default,0,0bf79103c11bf1bdf58a36cb12a4aca8e4c46e5acde16f932f5214eb76666585,1099.7683391571045,False,keypress,testRsp,533,[],choice-response,Out of time,650b27e2f10685b783942468,2023-09-20 13:12:01-04:00,tone8_90,5956,129,maintaskTrials
64f35663abb040f67b21100b,default,0,0bf79103c11bf1bdf58a36cb12a4aca8e4c46e5acde16f932f5214eb76666585,1099.7683391571045,False,keypress,testRsp,978,[],choice-response,In time,650b27e2f10685b783942468,2023-09-20 13:12:01-04:00,add1_0,6399,130,maintaskTrials
64f35663abb040f67b21100b,default,0,0bf79103c11bf1bdf58a36cb12a4aca8e4c46e5acde16f932f5214eb76666585,1099.7683391571045,False,keypress,testRsp,597,[],choice-response,Out of time,650b27e2f10685b783942468,2023-09-20 13:12:01-04:00,tone8_120,6026,131,maintaskTrials
64f35663abb040f67b21100b,default,0,0bf79103c11bf1bdf58a36cb12a4aca8e4c46e5acde16f932f5214eb76666585,1099.7683391571045,False,keypress,testRsp,458,[],choice-response,Out of time,650b27e2f10685b783942468,2023-09-20 13:12:01-04:00,add8_120,5883,132,maintaskTrials
64f35663abb040f67b21100b,default,0,0bf79103c11bf1bdf58a36cb12a4aca8e4c46e5acde16f932f5214eb76666585,1099.7683391571045,False,keypress,testRsp,638,[],choice-response,In time,650b27e2f10685b783942468,2023-09-20 13:12:01-04:00,add1_60,6060,133,maintaskTrials
64f35663abb040f67b21100b,default,0,0bf79103c11bf1bdf58a36cb12a4aca8e4c46e5acde16f932f5214eb76666585,1099.7683391571045,False,keypress,testRsp,560,[],choice-response,In time,650b27e2f10685b783942468,2023-09-20 13:12:01-04:00,lab8_30,5988,134,maintaskTrials
64f35663abb040f67b21100b,default,0,0bf79103c11bf1bdf58a36cb12a4aca8e4c46e5acde16f932f5214eb76666585,1099.7683391571045,False,keypress,testRsp,580,[],choice-response,In time,650b27e2f10685b783942468,2023-09-20 13:12:01-04:00,tone8_60,6011,135,maintaskTrials
64f35663abb040f67b21100b,default,0,0bf79103c11bf1bdf58a36cb12a4aca8e4c46e5acde16f932f5214eb76666585,1099.7683391571045,False,keypress,testRsp,560,[],choice-response,In time,650b27e2f10685b783942468,2023-09-20 13:12:01-04:00,lab1_30,5982,136,maintaskTrials
64f35663abb040f67b21100b,default,0,0bf79103c11bf1bdf58a36cb12a4aca8e4c46e5acde16f932f5214eb76666585,1099.7683391571045,False,keypress,testRsp,584,[],choice-response,In time,650b27e2f10685b783942468,2023-09-20 13:12:01-04:00,add8_30,6008,137,maintaskTrials
64f35663abb040f67b21100b,default,0,0bf79103c11bf1bdf58a36cb12a4aca8e4c46e5acde16f932f5214eb76666585,1099.7683391571045,False,keypress,testRsp,749,[],choice-response,Out of time,650b27e2f10685b783942468,2023-09-20 13:12:01-04:00,tone1_60,6172,138,maintaskTrials
64f35663abb040f67b21100b,default,0,0bf79103c11bf1bdf58a36cb12a4aca8e4c46e5acde16f932f5214eb76666585,1099.7683391571045,False,keypress,testRsp,493,[],choice-response,In time,650b27e2f10685b783942468,2023-09-20 13:12:01-04:00,lab1_0,5919,139,maintaskTrials
64f35663abb040f67b21100b,default,0,0bf79103c11bf1bdf58a36cb12a4aca8e4c46e5acde16f932f5214eb76666585,1099.7683391571045,False,keypress,testRsp,872,[],choice-response,In time,650b27e2f10685b783942468,2023-09-20 13:12:01-04:00,lab8_120,6322,140,maintaskTrials
64f35663abb040f67b21100b,default,0,0bf79103c11bf1bdf58a36cb12a4aca8e4c46e5acde16f932f5214eb76666585,1099.7683391571045,False,keypress,testRsp,1842,[],choice-response,In time,650b27e2f10685b783942468,2023-09-20 13:12:01-04:00,add8_0,7347,141,maintaskTrials
64f35663abb040f67b21100b,default,0,0bf79103c11bf1bdf58a36cb12a4aca8e4c46e5acde16f932f5214eb76666585,1099.7683391571045,False,keypress,testRsp,527,[],choice-response,In time,650b27e2f10685b783942468,2023-09-20 13:12:01-04:00,add8_60,5960,142,maintaskTrials
64f35663abb040f67b21100b,default,0,0bf79103c11bf1bdf58a36cb12a4aca8e4c46e5acde16f932f5214eb76666585,1099.7683391571045,False,keypress,testRsp,14988,[],choice-response,Out of time,650b27e2f10685b783942468,2023-09-20 13:12:01-04:00,add1_120,20398,143,maintaskTrials
64f35663abb040f67b21100b,default,0,0bf79103c11bf1bdf58a36cb12a4aca8e4c46e5acde16f932f5214eb76666585,1099.7683391571045,False,keypress,testRsp,736,[],choice-response,In time,650b27e2f10685b783942468,2023-09-20 13:12:01-04:00,lab8_60,6181,144,maintaskTrials
64f35663abb040f67b21100b,default,0,0bf79103c11bf1bdf58a36cb12a4aca8e4c46e5acde16f932f5214eb76666585,1099.7683391571045,False,keypress,testRsp,499,[],choice-response,Out of time,650b27e2f10685b783942468,2023-09-20 13:12:01-04:00,add1_90,5969,145,maintaskTrials
64f35663abb040f67b21100b,default,0,0bf79103c11bf1bdf58a36cb12a4aca8e4c46e5acde16f932f5214eb76666585,1099.7683391571045,False,keypress,testRsp,389,[],choice-response,In time,650b27e2f10685b783942468,2023-09-20 13:12:01-04:00,tone1_30,5837,146,maintaskTrials
64f35663abb040f67b21100b,default,0,0bf79103c11bf1bdf58a36cb12a4aca8e4c46e5acde16f932f5214eb76666585,1099.7683391571045,False,keypress,testRsp,555,[],choice-response,Out of time,650b27e2f10685b783942468,2023-09-20 13:12:01-04:00,tone1_90,5999,147,maintaskTrials
64f35663abb040f67b21100b,default,0,0bf79103c11bf1bdf58a36cb12a4aca8e4c46e5acde16f932f5214eb76666585,1099.7683391571045,False,keypress,testRsp,545,[],choice-response,In time,650b27e2f10685b783942468,2023-09-20 13:12:01-04:00,lab1_60,6156,148,maintaskTrials
64f35663abb040f67b21100b,default,0,0bf79103c11bf1bdf58a36cb12a4aca8e4c46e5acde16f932f5214eb76666585,1099.7683391571045,False,keypress,testRsp,1789,[],choice-response,In time,650b27e2f10685b783942468,2023-09-20 13:12:01-04:00,add1_30,7623,149,maintaskTrials
64f35663abb040f67b21100b,default,0,0bf79103c11bf1bdf58a36cb12a4aca8e4c46e5acde16f932f5214eb76666585,1099.7683391571045,False,keypress,testRsp,4297,[],choice-response,In time,650b27e2f10685b783942468,2023-09-20 13:12:01-04:00,lab1_90,9758,150,maintaskTrials
64f35663abb040f67b21100b,default,0,0bf79103c11bf1bdf58a36cb12a4aca8e4c46e5acde16f932f5214eb76666585,1099.7683391571045,False,keypress,testRsp,3766,[],choice-response,Out of time,650b27e2f10685b783942468,2023-09-20 13:12:01-04:00,lab1_120,9239,151,maintaskTrials
64f35663abb040f67b21100b,default,0,0bf79103c11bf1bdf58a36cb12a4aca8e4c46e5acde16f932f5214eb76666585,1099.7683391571045,False,keypress,testRsp,605,[],choice-response,In time,650b27e2f10685b783942468,2023-09-20 13:12:01-04:00,tone1_0,6053,152,maintaskTrials
64f35663abb040f67b21100b,default,0,0bf79103c11bf1bdf58a36cb12a4aca8e4c46e5acde16f932f5214eb76666585,1099.7683391571045,False,keypress,testRsp,611,[],choice-response,In time,650b27e2f10685b783942468,2023-09-20 13:12:01-04:00,lab8_90,6040,153,maintaskTrials
64f35663abb040f67b21100b,default,0,0bf79103c11bf1bdf58a36cb12a4aca8e4c46e5acde16f932f5214eb76666585,1099.7683391571045,False,keypress,testRsp,469,[],choice-response,In time,650b27e2f10685b783942468,2023-09-20 13:12:01-04:00,tone8_30,5896,154,maintaskTrials
64f35663abb040f67b21100b,default,0,0bf79103c11bf1bdf58a36cb12a4aca8e4c46e5acde16f932f5214eb76666585,1099.7683391571045,False,keypress,testRsp,660,[],choice-response,Out of time,650b27e2f10685b783942468,2023-09-20 13:12:01-04:00,add8_90,6088,155,maintaskTrials
64f35663abb040f67b21100b,default,0,0bf79103c11bf1bdf58a36cb12a4aca8e4c46e5acde16f932f5214eb76666585,1099.7683391571045,False,keypress,testRsp,484,[],choice-response,Out of time,650b27e2f10685b783942468,2023-09-20 13:12:01-04:00,lab8_0,5913,156,maintaskTrials
64f35663abb040f67b21100b,default,0,fe309edf43732330d5475d2dca5c20a360bc85ecae27dbd9c93ce56930450df4,1202.9107730388641,True,click,exampleRsp_lab,4147,['Out of time'],choice-response,Out of time,650b27e2f10685b783942468,2023-09-20 13:12:01-04:00,lab1_150,13126,1,example_lab
64f35663abb040f67b21100b,default,0,fe309edf43732330d5475d2dca5c20a360bc85ecae27dbd9c93ce56930450df4,1202.9107730388641,True,click,exampleRsp_lab,1134,['Out of time'],choice-response,Out of time,650b27e2f10685b783942468,2023-09-20 13:12:01-04:00,add8_150,9606,2,example_lab
64f35663abb040f67b21100b,default,0,fe309edf43732330d5475d2dca5c20a360bc85ecae27dbd9c93ce56930450df4,1202.9107730388641,True,click,exampleRsp_lab,933,['Out of time'],choice-response,Out of time,650b27e2f10685b783942468,2023-09-20 13:12:01-04:00,lab8_150,9628,3,example_lab
64f35663abb040f67b21100b,default,0,fe309edf43732330d5475d2dca5c20a360bc85ecae27dbd9c93ce56930450df4,1202.9107730388641,True,click,exampleRsp_tone,691,['Out of time'],choice-response,Out of time,650b27e2f10685b783942468,2023-09-20 13:12:01-04:00,tone8_150,9386,4,example_tone
64f35663abb040f67b21100b,default,0,fe309edf43732330d5475d2dca5c20a360bc85ecae27dbd9c93ce56930450df4,1202.9107730388641,True,click,exampleRsp_tone,960,['Out of time'],choice-response,Out of time,650b27e2f10685b783942468,2023-09-20 13:12:01-04:00,tone1_150,9559,5,example_tone
64f35663abb040f67b21100b,default,0,fe309edf43732330d5475d2dca5c20a360bc85ecae27dbd9c93ce56930450df4,1202.9107730388641,False,click,exampleRsp_lab,866,['Out of time'],choice-response,In time,650b27e2f10685b783942468,2023-09-20 13:12:01-04:00,add1_150,9401,6,example_lab
64f35663abb040f67b21100b,default,0,fe309edf43732330d5475d2dca5c20a360bc85ecae27dbd9c93ce56930450df4,1202.9107730388641,False,click,testRsp,987,[],choice-response,Out of time,650b27e2f10685b783942468,2023-09-20 13:12:01-04:00,add1_60,7015,7,maintaskTrials
64f35663abb040f67b21100b,default,0,fe309edf43732330d5475d2dca5c20a360bc85ecae27dbd9c93ce56930450df4,1202.9107730388641,False,click,testRsp,788,[],choice-response,In time,650b27e2f10685b783942468,2023-09-20 13:12:01-04:00,lab8_90,6578,8,maintaskTrials
64f35663abb040f67b21100b,default,0,fe309edf43732330d5475d2dca5c20a360bc85ecae27dbd9c93ce56930450df4,1202.9107730388641,False,click,testRsp,1026,[],choice-response,Out of time,650b27e2f10685b783942468,2023-09-20 13:12:01-04:00,tone1_0,6772,9,maintaskTrials
64f35663abb040f67b21100b,default,0,fe309edf43732330d5475d2dca5c20a360bc85ecae27dbd9c93ce56930450df4,1202.9107730388641,False,click,testRsp,1133,[],choice-response,In time,650b27e2f10685b783942468,2023-09-20 13:12:01-04:00,lab8_30,7071,10,maintaskTrials
64f35663abb040f67b21100b,default,0,fe309edf43732330d5475d2dca5c20a360bc85ecae27dbd9c93ce56930450df4,1202.9107730388641,False,click,testRsp,837,[],choice-response,In time,650b27e2f10685b783942468,2023-09-20 13:12:01-04:00,lab1_90,6593,11,maintaskTrials
64f35663abb040f67b21100b,default,0,fe309edf43732330d5475d2dca5c20a360bc85ecae27dbd9c93ce56930450df4,1202.9107730388641,False,click,testRsp,893,[],choice-response,In time,650b27e2f10685b783942468,2023-09-20 13:12:01-04:00,lab1_60,6611,12,maintaskTrials
64f35663abb040f67b21100b,default,0,fe309edf43732330d5475d2dca5c20a360bc85ecae27dbd9c93ce56930450df4,1202.9107730388641,False,click,testRsp,814,[],choice-response,Out of time,650b27e2f10685b783942468,2023-09-20 13:12:01-04:00,lab8_120,6579,13,maintaskTrials
64f35663abb040f67b21100b,default,0,fe309edf43732330d5475d2dca5c20a360bc85ecae27dbd9c93ce56930450df4,1202.9107730388641,False,click,testRsp,854,[],choice-response,Out of time,650b27e2f10685b783942468,2023-09-20 13:12:01-04:00,lab1_0,6788,14,maintaskTrials
64f35663abb040f67b21100b,default,0,fe309edf43732330d5475d2dca5c20a360bc85ecae27dbd9c93ce56930450df4,1202.9107730388641,False,click,testRsp,867,[],choice-response,Out of time,650b27e2f10685b783942468,2023-09-20 13:12:01-04:00,add8_60,6750,15,maintaskTrials
64f35663abb040f67b21100b,default,0,fe309edf43732330d5475d2dca5c20a360bc85ecae27dbd9c93ce56930450df4,1202.9107730388641,False,click,testRsp,580,[],choice-response,In time,650b27e2f10685b783942468,2023-09-20 13:12:01-04:00,lab8_60,6377,16,maintaskTrials
64f35663abb040f67b21100b,default,0,fe309edf43732330d5475d2dca5c20a360bc85ecae27dbd9c93ce56930450df4,1202.9107730388641,False,click,testRsp,533,[],choice-response,Out of time,650b27e2f10685b783942468,2023-09-20 13:12:01-04:00,tone1_120,6160,17,maintaskTrials
64f35663abb040f67b21100b,default,0,fe309edf43732330d5475d2dca5c20a360bc85ecae27dbd9c93ce56930450df4,1202.9107730388641,False,click,testRsp,753,[],choice-response,In time,650b27e2f10685b783942468,2023-09-20 13:12:01-04:00,tone1_30,6539,18,maintaskTrials
64f35663abb040f67b21100b,default,0,fe309edf43732330d5475d2dca5c20a360bc85ecae27dbd9c93ce56930450df4,1202.9107730388641,False,click,testRsp,856,[],choice-response,Out of time,650b27e2f10685b783942468,2023-09-20 13:12:01-04:00,tone8_60,6823,19,maintaskTrials
64f35663abb040f67b21100b,default,0,fe309edf43732330d5475d2dca5c20a360bc85ecae27dbd9c93ce56930450df4,1202.9107730388641,False,click,testRsp,590,[],choice-response,Out of time,650b27e2f10685b783942468,2023-09-20 13:12:01-04:00,tone8_90,6553,20,maintaskTrials
64f35663abb040f67b21100b,default,0,fe309edf43732330d5475d2dca5c20a360bc85ecae27dbd9c93ce56930450df4,1202.9107730388641,False,click,testRsp,602,[],choice-response,Out of time,650b27e2f10685b783942468,2023-09-20 13:12:01-04:00,lab8_0,6228,21,maintaskTrials
64f35663abb040f67b21100b,default,0,fe309edf43732330d5475d2dca5c20a360bc85ecae27dbd9c93ce56930450df4,1202.9107730388641,False,click,testRsp,557,[],choice-response,In time,650b27e2f10685b783942468,2023-09-20 13:12:01-04:00,add8_0,6201,22,maintaskTrials
64f35663abb040f67b21100b,default,0,fe309edf43732330d5475d2dca5c20a360bc85ecae27dbd9c93ce56930450df4,1202.9107730388641,False,click,testRsp,671,[],choice-response,Out of time,650b27e2f10685b783942468,2023-09-20 13:12:01-04:00,add1_90,6435,23,maintaskTrials
64f35663abb040f67b21100b,default,0,fe309edf43732330d5475d2dca5c20a360bc85ecae27dbd9c93ce56930450df4,1202.9107730388641,False,click,testRsp,531,[],choice-response,Out of time,650b27e2f10685b783942468,2023-09-20 13:12:01-04:00,tone1_90,6260,24,maintaskTrials
64f35663abb040f67b21100b,default,0,fe309edf43732330d5475d2dca5c20a360bc85ecae27dbd9c93ce56930450df4,1202.9107730388641,False,click,testRsp,553,[],choice-response,Out of time,650b27e2f10685b783942468,2023-09-20 13:12:01-04:00,tone8_30,6308,25,maintaskTrials
64f35663abb040f67b21100b,default,0,fe309edf43732330d5475d2dca5c20a360bc85ecae27dbd9c93ce56930450df4,1202.9107730388641,False,click,testRsp,1914,[],choice-response,In time,650b27e2f10685b783942468,2023-09-20 13:12:01-04:00,tone8_0,7596,26,maintaskTrials
64f35663abb040f67b21100b,default,0,fe309edf43732330d5475d2dca5c20a360bc85ecae27dbd9c93ce56930450df4,1202.9107730388641,False,click,testRsp,775,[],choice-response,In time,650b27e2f10685b783942468,2023-09-20 13:12:01-04:00,tone1_60,6428,27,maintaskTrials
64f35663abb040f67b21100b,default,0,fe309edf43732330d5475d2dca5c20a360bc85ecae27dbd9c93ce56930450df4,1202.9107730388641,False,click,testRsp,577,[],choice-response,Out of time,650b27e2f10685b783942468,2023-09-20 13:12:01-04:00,add1_120,6372,28,maintaskTrials
64f35663abb040f67b21100b,default,0,fe309edf43732330d5475d2dca5c20a360bc85ecae27dbd9c93ce56930450df4,1202.9107730388641,False,click,testRsp,670,[],choice-response,In time,650b27e2f10685b783942468,2023-09-20 13:12:01-04:00,lab1_30,6502,29,maintaskTrials
64f35663abb040f67b21100b,default,0,fe309edf43732330d5475d2dca5c20a360bc85ecae27dbd9c93ce56930450df4,1202.9107730388641,False,click,testRsp,1586,[],choice-response,Out of time,650b27e2f10685b783942468,2023-09-20 13:12:01-04:00,add8_90,7267,30,maintaskTrials
64f35663abb040f67b21100b,default,0,fe309edf43732330d5475d2dca5c20a360bc85ecae27dbd9c93ce56930450df4,1202.9107730388641,False,click,testRsp,1525,[],choice-response,In time,650b27e2f10685b783942468,2023-09-20 13:12:01-04:00,add1_30,7400,31,maintaskTrials
64f35663abb040f67b21100b,default,0,fe309edf43732330d5475d2dca5c20a360bc85ecae27dbd9c93ce56930450df4,1202.9107730388641,False,click,testRsp,561,[],choice-response,Out of time,650b27e2f10685b783942468,2023-09-20 13:12:01-04:00,lab1_120,6226,32,maintaskTrials
64f35663abb040f67b21100b,default,0,fe309edf43732330d5475d2dca5c20a360bc85ecae27dbd9c93ce56930450df4,1202.9107730388641,False,click,testRsp,848,[],choice-response,In time,650b27e2f10685b783942468,2023-09-20 13:12:01-04:00,add1_0,6929,33,maintaskTrials
64f35663abb040f67b21100b,default,0,fe309edf43732330d5475d2dca5c20a360bc85ecae27dbd9c93ce56930450df4,1202.9107730388641,False,click,testRsp,802,[],choice-response,Out of time,650b27e2f10685b783942468,2023-09-20 13:12:01-04:00,add8_120,6579,34,maintaskTrials
64f35663abb040f67b21100b,default,0,fe309edf43732330d5475d2dca5c20a360bc85ecae27dbd9c93ce56930450df4,1202.9107730388641,False,click,testRsp,837,[],choice-response,In time,650b27e2f10685b783942468,2023-09-20 13:12:01-04:00,add8_30,6682,35,maintaskTrials
64f35663abb040f67b21100b,default,0,fe309edf43732330d5475d2dca5c20a360bc85ecae27dbd9c93ce56930450df4,1202.9107730388641,False,click,testRsp,752,[],choice-response,Out of time,650b27e2f10685b783942468,2023-09-20 13:12:01-04:00,tone8_120,6370,36,maintaskTrials
64f35663abb040f67b21100b,default,0,fe309edf43732330d5475d2dca5c20a360bc85ecae27dbd9c93ce56930450df4,1202.9107730388641,False,click,testRsp,820,[],choice-response,In time,650b27e2f10685b783942468,2023-09-20 13:12:01-04:00,add1_60,6195,37,maintaskTrials
64f35663abb040f67b21100b,default,0,fe309edf43732330d5475d2dca5c20a360bc85ecae27dbd9c93ce56930450df4,1202.9107730388641,False,click,testRsp,567,[],choice-response,Out of time,650b27e2f10685b783942468,2023-09-20 13:12:01-04:00,add1_120,5929,38,maintaskTrials
64f35663abb040f67b21100b,default,0,fe309edf43732330d5475d2dca5c20a360bc85ecae27dbd9c93ce56930450df4,1202.9107730388641,False,click,testRsp,854,[],choice-response,Out of time,650b27e2f10685b783942468,2023-09-20 13:12:01-04:00,lab8_0,6212,39,maintaskTrials
64f35663abb040f67b21100b,default,0,fe309edf43732330d5475d2dca5c20a360bc85ecae27dbd9c93ce56930450df4,1202.9107730388641,False,click,testRsp,845,[],choice-response,In time,650b27e2f10685b783942468,2023-09-20 13:12:01-04:00,lab1_90,6200,40,maintaskTrials
64f35663abb040f67b21100b,default,0,fe309edf43732330d5475d2dca5c20a360bc85ecae27dbd9c93ce56930450df4,1202.9107730388641,False,click,testRsp,472,[],choice-response,Out of time,650b27e2f10685b783942468,2023-09-20 13:12:01-04:00,add1_90,5836,41,maintaskTrials
64f35663abb040f67b21100b,default,0,fe309edf43732330d5475d2dca5c20a360bc85ecae27dbd9c93ce56930450df4,1202.9107730388641,False,click,testRsp,1392,[],choice-response,In time,650b27e2f10685b783942468,2023-09-20 13:12:01-04:00,lab1_30,6793,42,maintaskTrials
64f35663abb040f67b21100b,default,0,fe309edf43732330d5475d2dca5c20a360bc85ecae27dbd9c93ce56930450df4,1202.9107730388641,False,click,testRsp,823,[],choice-response,Out of time,650b27e2f10685b783942468,2023-09-20 13:12:01-04:00,lab1_0,6181,43,maintaskTrials
64f35663abb040f67b21100b,default,0,fe309edf43732330d5475d2dca5c20a360bc85ecae27dbd9c93ce56930450df4,1202.9107730388641,False,click,testRsp,7340,[],choice-response,In time,650b27e2f10685b783942468,2023-09-20 13:12:01-04:00,lab1_120,12702,44,maintaskTrials
64f35663abb040f67b21100b,default,0,fe309edf43732330d5475d2dca5c20a360bc85ecae27dbd9c93ce56930450df4,1202.9107730388641,False,click,testRsp,605,[],choice-response,In time,650b27e2f10685b783942468,2023-09-20 13:12:01-04:00,lab8_120,5970,45,maintaskTrials
64f35663abb040f67b21100b,default,0,fe309edf43732330d5475d2dca5c20a360bc85ecae27dbd9c93ce56930450df4,1202.9107730388641,False,click,testRsp,760,[],choice-response,In time,650b27e2f10685b783942468,2023-09-20 13:12:01-04:00,tone1_0,6137,46,maintaskTrials
64f35663abb040f67b21100b,default,0,fe309edf43732330d5475d2dca5c20a360bc85ecae27dbd9c93ce56930450df4,1202.9107730388641,False,click,testRsp,590,[],choice-response,In time,650b27e2f10685b783942468,2023-09-20 13:12:01-04:00,lab1_60,5965,47,maintaskTrials
64f35663abb040f67b21100b,default,0,fe309edf43732330d5475d2dca5c20a360bc85ecae27dbd9c93ce56930450df4,1202.9107730388641,False,click,testRsp,672,[],choice-response,Out of time,650b27e2f10685b783942468,2023-09-20 13:12:01-04:00,tone1_90,6044,48,maintaskTrials
64f35663abb040f67b21100b,default,0,fe309edf43732330d5475d2dca5c20a360bc85ecae27dbd9c93ce56930450df4,1202.9107730388641,False,click,testRsp,876,[],choice-response,Out of time,650b27e2f10685b783942468,2023-09-20 13:12:01-04:00,add8_60,6277,49,maintaskTrials
64f35663abb040f67b21100b,default,0,fe309edf43732330d5475d2dca5c20a360bc85ecae27dbd9c93ce56930450df4,1202.9107730388641,False,click,testRsp,1517,[],choice-response,In time,650b27e2f10685b783942468,2023-09-20 13:12:01-04:00,lab8_90,6887,50,maintaskTrials
64f35663abb040f67b21100b,default,0,fe309edf43732330d5475d2dca5c20a360bc85ecae27dbd9c93ce56930450df4,1202.9107730388641,False,click,testRsp,638,[],choice-response,Out of time,650b27e2f10685b783942468,2023-09-20 13:12:01-04:00,tone8_120,6001,51,maintaskTrials
64f35663abb040f67b21100b,default,0,fe309edf43732330d5475d2dca5c20a360bc85ecae27dbd9c93ce56930450df4,1202.9107730388641,False,click,testRsp,629,[],choice-response,In time,650b27e2f10685b783942468,2023-09-20 13:12:01-04:00,add1_0,5972,52,maintaskTrials
64f35663abb040f67b21100b,default,0,fe309edf43732330d5475d2dca5c20a360bc85ecae27dbd9c93ce56930450df4,1202.9107730388641,False,click,testRsp,639,[],choice-response,In time,650b27e2f10685b783942468,2023-09-20 13:12:01-04:00,add8_0,5994,53,maintaskTrials
64f35663abb040f67b21100b,default,0,fe309edf43732330d5475d2dca5c20a360bc85ecae27dbd9c93ce56930450df4,1202.9107730388641,False,click,testRsp,1629,[],choice-response,In time,650b27e2f10685b783942468,2023-09-20 13:12:01-04:00,tone1_30,7000,54,maintaskTrials
64f35663abb040f67b21100b,default,0,fe309edf43732330d5475d2dca5c20a360bc85ecae27dbd9c93ce56930450df4,1202.9107730388641,False,click,testRsp,818,[],choice-response,Out of time,650b27e2f10685b783942468,2023-09-20 13:12:01-04:00,lab8_30,6160,55,maintaskTrials
64f35663abb040f67b21100b,default,0,fe309edf43732330d5475d2dca5c20a360bc85ecae27dbd9c93ce56930450df4,1202.9107730388641,False,click,testRsp,619,[],choice-response,Out of time,650b27e2f10685b783942468,2023-09-20 13:12:01-04:00,tone8_0,5989,56,maintaskTrials
64f35663abb040f67b21100b,default,0,fe309edf43732330d5475d2dca5c20a360bc85ecae27dbd9c93ce56930450df4,1202.9107730388641,False,click,testRsp,510,[],choice-response,Out of time,650b27e2f10685b783942468,2023-09-20 13:12:01-04:00,tone8_60,5866,57,maintaskTrials
64f35663abb040f67b21100b,default,0,fe309edf43732330d5475d2dca5c20a360bc85ecae27dbd9c93ce56930450df4,1202.9107730388641,False,click,testRsp,1032,[],choice-response,Out of time,650b27e2f10685b783942468,2023-09-20 13:12:01-04:00,tone8_90,6429,58,maintaskTrials
64f35663abb040f67b21100b,default,0,fe309edf43732330d5475d2dca5c20a360bc85ecae27dbd9c93ce56930450df4,1202.9107730388641,False,click,testRsp,2498,[],choice-response,In time,650b27e2f10685b783942468,2023-09-20 13:12:01-04:00,add8_30,7881,59,maintaskTrials
64f35663abb040f67b21100b,default,0,fe309edf43732330d5475d2dca5c20a360bc85ecae27dbd9c93ce56930450df4,1202.9107730388641,False,click,testRsp,899,[],choice-response,In time,650b27e2f10685b783942468,2023-09-20 13:12:01-04:00,tone1_60,6278,60,maintaskTrials
64f35663abb040f67b21100b,default,0,fe309edf43732330d5475d2dca5c20a360bc85ecae27dbd9c93ce56930450df4,1202.9107730388641,False,click,testRsp,815,[],choice-response,Out of time,650b27e2f10685b783942468,2023-09-20 13:12:01-04:00,tone8_30,6192,61,maintaskTrials
64f35663abb040f67b21100b,default,0,fe309edf43732330d5475d2dca5c20a360bc85ecae27dbd9c93ce56930450df4,1202.9107730388641,False,click,testRsp,606,[],choice-response,Out of time,650b27e2f10685b783942468,2023-09-20 13:12:01-04:00,add8_90,5973,62,maintaskTrials
64f35663abb040f67b21100b,default,0,fe309edf43732330d5475d2dca5c20a360bc85ecae27dbd9c93ce56930450df4,1202.9107730388641,False,click,testRsp,701,[],choice-response,In time,650b27e2f10685b783942468,2023-09-20 13:12:01-04:00,lab8_60,6070,63,maintaskTrials
64f35663abb040f67b21100b,default,0,fe309edf43732330d5475d2dca5c20a360bc85ecae27dbd9c93ce56930450df4,1202.9107730388641,False,click,testRsp,1285,[],choice-response,Out of time,650b27e2f10685b783942468,2023-09-20 13:12:01-04:00,tone1_120,6668,64,maintaskTrials
64f35663abb040f67b21100b,default,0,fe309edf43732330d5475d2dca5c20a360bc85ecae27dbd9c93ce56930450df4,1202.9107730388641,False,click,testRsp,1148,[],choice-response,Out of time,650b27e2f10685b783942468,2023-09-20 13:12:01-04:00,add8_120,6509,65,maintaskTrials
64f35663abb040f67b21100b,default,0,fe309edf43732330d5475d2dca5c20a360bc85ecae27dbd9c93ce56930450df4,1202.9107730388641,False,click,testRsp,1151,[],choice-response,In time,650b27e2f10685b783942468,2023-09-20 13:12:01-04:00,add1_30,6549,66,maintaskTrials
64f35663abb040f67b21100b,default,0,fe309edf43732330d5475d2dca5c20a360bc85ecae27dbd9c93ce56930450df4,1202.9107730388641,False,click,testRsp,590,[],choice-response,In time,650b27e2f10685b783942468,2023-09-20 13:12:01-04:00,add1_0,5964,67,maintaskTrials
64f35663abb040f67b21100b,default,0,fe309edf43732330d5475d2dca5c20a360bc85ecae27dbd9c93ce56930450df4,1202.9107730388641,False,click,testRsp,741,[],choice-response,Out of time,650b27e2f10685b783942468,2023-09-20 13:12:01-04:00,lab8_30,6119,68,maintaskTrials
64f35663abb040f67b21100b,default,0,fe309edf43732330d5475d2dca5c20a360bc85ecae27dbd9c93ce56930450df4,1202.9107730388641,False,click,testRsp,1305,[],choice-response,Out of time,650b27e2f10685b783942468,2023-09-20 13:12:01-04:00,tone8_30,6679,69,maintaskTrials
64f35663abb040f67b21100b,default,0,fe309edf43732330d5475d2dca5c20a360bc85ecae27dbd9c93ce56930450df4,1202.9107730388641,False,click,testRsp,622,[],choice-response,In time,650b27e2f10685b783942468,2023-09-20 13:12:01-04:00,lab8_90,5996,70,maintaskTrials
64f35663abb040f67b21100b,default,0,fe309edf43732330d5475d2dca5c20a360bc85ecae27dbd9c93ce56930450df4,1202.9107730388641,False,click,testRsp,594,[],choice-response,In time,650b27e2f10685b783942468,2023-09-20 13:12:01-04:00,lab8_60,5959,71,maintaskTrials
64f35663abb040f67b21100b,default,0,fe309edf43732330d5475d2dca5c20a360bc85ecae27dbd9c93ce56930450df4,1202.9107730388641,False,click,testRsp,1283,[],choice-response,In time,650b27e2f10685b783942468,2023-09-20 13:12:01-04:00,add1_60,6655,72,maintaskTrials
64f35663abb040f67b21100b,default,0,fe309edf43732330d5475d2dca5c20a360bc85ecae27dbd9c93ce56930450df4,1202.9107730388641,False,click,testRsp,695,[],choice-response,Out of time,650b27e2f10685b783942468,2023-09-20 13:12:01-04:00,tone1_90,6066,73,maintaskTrials
64f35663abb040f67b21100b,default,0,fe309edf43732330d5475d2dca5c20a360bc85ecae27dbd9c93ce56930450df4,1202.9107730388641,False,click,testRsp,552,[],choice-response,In time,650b27e2f10685b783942468,2023-09-20 13:12:01-04:00,add8_30,5906,74,maintaskTrials
64f35663abb040f67b21100b,default,0,fe309edf43732330d5475d2dca5c20a360bc85ecae27dbd9c93ce56930450df4,1202.9107730388641,False,click,testRsp,1148,[],choice-response,Out of time,650b27e2f10685b783942468,2023-09-20 13:12:01-04:00,tone1_120,6509,75,maintaskTrials
64f35663abb040f67b21100b,default,0,fe309edf43732330d5475d2dca5c20a360bc85ecae27dbd9c93ce56930450df4,1202.9107730388641,False,click,testRsp,1005,[],choice-response,In time,650b27e2f10685b783942468,2023-09-20 13:12:01-04:00,add1_30,6388,76,maintaskTrials
64f35663abb040f67b21100b,default,0,fe309edf43732330d5475d2dca5c20a360bc85ecae27dbd9c93ce56930450df4,1202.9107730388641,False,click,testRsp,852,[],choice-response,Out of time,650b27e2f10685b783942468,2023-09-20 13:12:01-04:00,add8_90,6212,77,maintaskTrials
64f35663abb040f67b21100b,default,0,fe309edf43732330d5475d2dca5c20a360bc85ecae27dbd9c93ce56930450df4,1202.9107730388641,False,click,testRsp,551,[],choice-response,Out of time,650b27e2f10685b783942468,2023-09-20 13:12:01-04:00,lab1_0,5914,78,maintaskTrials
64f35663abb040f67b21100b,default,0,fe309edf43732330d5475d2dca5c20a360bc85ecae27dbd9c93ce56930450df4,1202.9107730388641,False,click,testRsp,803,[],choice-response,Out of time,650b27e2f10685b783942468,2023-09-20 13:12:01-04:00,tone1_60,6200,79,maintaskTrials
64f35663abb040f67b21100b,default,0,fe309edf43732330d5475d2dca5c20a360bc85ecae27dbd9c93ce56930450df4,1202.9107730388641,False,click,testRsp,491,[],choice-response,Out of time,650b27e2f10685b783942468,2023-09-20 13:12:01-04:00,tone8_90,5863,80,maintaskTrials
64f35663abb040f67b21100b,default,0,fe309edf43732330d5475d2dca5c20a360bc85ecae27dbd9c93ce56930450df4,1202.9107730388641,False,click,testRsp,571,[],choice-response,Out of time,650b27e2f10685b783942468,2023-09-20 13:12:01-04:00,add8_60,5921,81,maintaskTrials
64f35663abb040f67b21100b,default,0,fe309edf43732330d5475d2dca5c20a360bc85ecae27dbd9c93ce56930450df4,1202.9107730388641,False,click,testRsp,543,[],choice-response,Out of time,650b27e2f10685b783942468,2023-09-20 13:12:01-04:00,tone8_120,5947,82,maintaskTrials
64f35663abb040f67b21100b,default,0,fe309edf43732330d5475d2dca5c20a360bc85ecae27dbd9c93ce56930450df4,1202.9107730388641,False,click,testRsp,553,[],choice-response,Out of time,650b27e2f10685b783942468,2023-09-20 13:12:01-04:00,lab8_0,5927,83,maintaskTrials
64f35663abb040f67b21100b,default,0,fe309edf43732330d5475d2dca5c20a360bc85ecae27dbd9c93ce56930450df4,1202.9107730388641,False,click,testRsp,834,[],choice-response,Out of time,650b27e2f10685b783942468,2023-09-20 13:12:01-04:00,add1_120,6191,84,maintaskTrials
64f35663abb040f67b21100b,default,0,fe309edf43732330d5475d2dca5c20a360bc85ecae27dbd9c93ce56930450df4,1202.9107730388641,False,click,testRsp,636,[],choice-response,Out of time,650b27e2f10685b783942468,2023-09-20 13:12:01-04:00,tone8_0,6014,85,maintaskTrials
64f35663abb040f67b21100b,default,0,fe309edf43732330d5475d2dca5c20a360bc85ecae27dbd9c93ce56930450df4,1202.9107730388641,False,click,testRsp,703,[],choice-response,In time,650b27e2f10685b783942468,2023-09-20 13:12:01-04:00,lab1_60,6078,86,maintaskTrials
64f35663abb040f67b21100b,default,0,fe309edf43732330d5475d2dca5c20a360bc85ecae27dbd9c93ce56930450df4,1202.9107730388641,False,click,testRsp,825,[],choice-response,Out of time,650b27e2f10685b783942468,2023-09-20 13:12:01-04:00,lab1_120,6231,87,maintaskTrials
64f35663abb040f67b21100b,default,0,fe309edf43732330d5475d2dca5c20a360bc85ecae27dbd9c93ce56930450df4,1202.9107730388641,False,click,testRsp,845,[],choice-response,In time,650b27e2f10685b783942468,2023-09-20 13:12:01-04:00,lab1_90,6217,88,maintaskTrials
64f35663abb040f67b21100b,default,0,fe309edf43732330d5475d2dca5c20a360bc85ecae27dbd9c93ce56930450df4,1202.9107730388641,False,click,testRsp,560,[],choice-response,Out of time,650b27e2f10685b783942468,2023-09-20 13:12:01-04:00,add8_120,5965,89,maintaskTrials
64f35663abb040f67b21100b,default,0,fe309edf43732330d5475d2dca5c20a360bc85ecae27dbd9c93ce56930450df4,1202.9107730388641,False,click,testRsp,1603,[],choice-response,In time,650b27e2f10685b783942468,2023-09-20 13:12:01-04:00,lab1_30,6974,90,maintaskTrials
64f35663abb040f67b21100b,default,0,fe309edf43732330d5475d2dca5c20a360bc85ecae27dbd9c93ce56930450df4,1202.9107730388641,False,click,testRsp,847,[],choice-response,Out of time,650b27e2f10685b783942468,2023-09-20 13:12:01-04:00,tone1_30,6230,91,maintaskTrials
64f35663abb040f67b21100b,default,0,fe309edf43732330d5475d2dca5c20a360bc85ecae27dbd9c93ce56930450df4,1202.9107730388641,False,click,testRsp,799,[],choice-response,In time,650b27e2f10685b783942468,2023-09-20 13:12:01-04:00,tone1_0,6174,92,maintaskTrials
64f35663abb040f67b21100b,default,0,fe309edf43732330d5475d2dca5c20a360bc85ecae27dbd9c93ce56930450df4,1202.9107730388641,False,click,testRsp,805,[],choice-response,Out of time,650b27e2f10685b783942468,2023-09-20 13:12:01-04:00,add1_90,6153,93,maintaskTrials
64f35663abb040f67b21100b,default,0,fe309edf43732330d5475d2dca5c20a360bc85ecae27dbd9c93ce56930450df4,1202.9107730388641,False,click,testRsp,921,[],choice-response,Out of time,650b27e2f10685b783942468,2023-09-20 13:12:01-04:00,lab8_120,6297,94,maintaskTrials
64f35663abb040f67b21100b,default,0,fe309edf43732330d5475d2dca5c20a360bc85ecae27dbd9c93ce56930450df4,1202.9107730388641,False,click,testRsp,551,[],choice-response,Out of time,650b27e2f10685b783942468,2023-09-20 13:12:01-04:00,tone8_60,5925,95,maintaskTrials
64f35663abb040f67b21100b,default,0,fe309edf43732330d5475d2dca5c20a360bc85ecae27dbd9c93ce56930450df4,1202.9107730388641,False,click,testRsp,651,[],choice-response,In time,650b27e2f10685b783942468,2023-09-20 13:12:01-04:00,add8_0,6022,96,maintaskTrials
64f35663abb040f67b21100b,default,0,fe309edf43732330d5475d2dca5c20a360bc85ecae27dbd9c93ce56930450df4,1202.9107730388641,False,click,testRsp,598,[],choice-response,In time,650b27e2f10685b783942468,2023-09-20 13:12:01-04:00,lab8_90,5956,97,maintaskTrials
64f35663abb040f67b21100b,default,0,fe309edf43732330d5475d2dca5c20a360bc85ecae27dbd9c93ce56930450df4,1202.9107730388641,False,click,testRsp,1476,[],choice-response,Out of time,650b27e2f10685b783942468,2023-09-20 13:12:01-04:00,tone8_30,6857,98,maintaskTrials
64f35663abb040f67b21100b,default,0,fe309edf43732330d5475d2dca5c20a360bc85ecae27dbd9c93ce56930450df4,1202.9107730388641,False,click,testRsp,1819,[],choice-response,Out of time,650b27e2f10685b783942468,2023-09-20 13:12:01-04:00,tone8_0,7199,99,maintaskTrials
64f35663abb040f67b21100b,default,0,fe309edf43732330d5475d2dca5c20a360bc85ecae27dbd9c93ce56930450df4,1202.9107730388641,False,click,testRsp,604,[],choice-response,In time,650b27e2f10685b783942468,2023-09-20 13:12:01-04:00,lab1_30,5969,100,maintaskTrials
64f35663abb040f67b21100b,default,0,fe309edf43732330d5475d2dca5c20a360bc85ecae27dbd9c93ce56930450df4,1202.9107730388641,False,click,testRsp,701,[],choice-response,In time,650b27e2f10685b783942468,2023-09-20 13:12:01-04:00,lab8_60,6051,101,maintaskTrials
64f35663abb040f67b21100b,default,0,fe309edf43732330d5475d2dca5c20a360bc85ecae27dbd9c93ce56930450df4,1202.9107730388641,False,click,testRsp,604,[],choice-response,Out of time,650b27e2f10685b783942468,2023-09-20 13:12:01-04:00,add8_90,5970,102,maintaskTrials
64f35663abb040f67b21100b,default,0,fe309edf43732330d5475d2dca5c20a360bc85ecae27dbd9c93ce56930450df4,1202.9107730388641,False,click,testRsp,785,[],choice-response,Out of time,650b27e2f10685b783942468,2023-09-20 13:12:01-04:00,tone8_60,6163,103,maintaskTrials
64f35663abb040f67b21100b,default,0,fe309edf43732330d5475d2dca5c20a360bc85ecae27dbd9c93ce56930450df4,1202.9107730388641,False,click,testRsp,765,[],choice-response,In time,650b27e2f10685b783942468,2023-09-20 13:12:01-04:00,add1_0,6161,104,maintaskTrials
64f35663abb040f67b21100b,default,0,fe309edf43732330d5475d2dca5c20a360bc85ecae27dbd9c93ce56930450df4,1202.9107730388641,False,click,testRsp,645,[],choice-response,Out of time,650b27e2f10685b783942468,2023-09-20 13:12:01-04:00,add1_120,6031,105,maintaskTrials
64f35663abb040f67b21100b,default,0,fe309edf43732330d5475d2dca5c20a360bc85ecae27dbd9c93ce56930450df4,1202.9107730388641,False,click,testRsp,549,[],choice-response,Out of time,650b27e2f10685b783942468,2023-09-20 13:12:01-04:00,tone1_120,5950,106,maintaskTrials
64f35663abb040f67b21100b,default,0,fe309edf43732330d5475d2dca5c20a360bc85ecae27dbd9c93ce56930450df4,1202.9107730388641,False,click,testRsp,1145,[],choice-response,Out of time,650b27e2f10685b783942468,2023-09-20 13:12:01-04:00,tone1_90,6513,107,maintaskTrials
64f35663abb040f67b21100b,default,0,fe309edf43732330d5475d2dca5c20a360bc85ecae27dbd9c93ce56930450df4,1202.9107730388641,False,click,testRsp,910,[],choice-response,Out of time,650b27e2f10685b783942468,2023-09-20 13:12:01-04:00,add8_60,6275,108,maintaskTrials
64f35663abb040f67b21100b,default,0,fe309edf43732330d5475d2dca5c20a360bc85ecae27dbd9c93ce56930450df4,1202.9107730388641,False,click,testRsp,673,[],choice-response,Out of time,650b27e2f10685b783942468,2023-09-20 13:12:01-04:00,add8_120,6041,109,maintaskTrials
64f35663abb040f67b21100b,default,0,fe309edf43732330d5475d2dca5c20a360bc85ecae27dbd9c93ce56930450df4,1202.9107730388641,False,click,testRsp,913,[],choice-response,Out of time,650b27e2f10685b783942468,2023-09-20 13:12:01-04:00,lab8_120,6289,110,maintaskTrials
64f35663abb040f67b21100b,default,0,fe309edf43732330d5475d2dca5c20a360bc85ecae27dbd9c93ce56930450df4,1202.9107730388641,False,click,testRsp,782,[],choice-response,In time,650b27e2f10685b783942468,2023-09-20 13:12:01-04:00,add8_30,6152,111,maintaskTrials
64f35663abb040f67b21100b,default,0,fe309edf43732330d5475d2dca5c20a360bc85ecae27dbd9c93ce56930450df4,1202.9107730388641,False,click,testRsp,560,[],choice-response,Out of time,650b27e2f10685b783942468,2023-09-20 13:12:01-04:00,tone8_90,5927,112,maintaskTrials
64f35663abb040f67b21100b,default,0,fe309edf43732330d5475d2dca5c20a360bc85ecae27dbd9c93ce56930450df4,1202.9107730388641,False,click,testRsp,630,[],choice-response,Out of time,650b27e2f10685b783942468,2023-09-20 13:12:01-04:00,lab1_0,6007,113,maintaskTrials
64f35663abb040f67b21100b,default,0,fe309edf43732330d5475d2dca5c20a360bc85ecae27dbd9c93ce56930450df4,1202.9107730388641,False,click,testRsp,646,[],choice-response,Out of time,650b27e2f10685b783942468,2023-09-20 13:12:01-04:00,add1_60,6020,114,maintaskTrials
64f35663abb040f67b21100b,default,0,fe309edf43732330d5475d2dca5c20a360bc85ecae27dbd9c93ce56930450df4,1202.9107730388641,False,click,testRsp,5727,[],choice-response,In time,650b27e2f10685b783942468,2023-09-20 13:12:01-04:00,lab1_60,11099,115,maintaskTrials
64f35663abb040f67b21100b,default,0,fe309edf43732330d5475d2dca5c20a360bc85ecae27dbd9c93ce56930450df4,1202.9107730388641,False,click,testRsp,584,[],choice-response,Out of time,650b27e2f10685b783942468,2023-09-20 13:12:01-04:00,tone1_60,5987,116,maintaskTrials
64f35663abb040f67b21100b,default,0,fe309edf43732330d5475d2dca5c20a360bc85ecae27dbd9c93ce56930450df4,1202.9107730388641,False,click,testRsp,973,[],choice-response,Out of time,650b27e2f10685b783942468,2023-09-20 13:12:01-04:00,lab1_120,6374,117,maintaskTrials
64f35663abb040f67b21100b,default,0,fe309edf43732330d5475d2dca5c20a360bc85ecae27dbd9c93ce56930450df4,1202.9107730388641,False,click,testRsp,2681,[],choice-response,Out of time,650b27e2f10685b783942468,2023-09-20 13:12:01-04:00,add1_30,8060,118,maintaskTrials
64f35663abb040f67b21100b,default,0,fe309edf43732330d5475d2dca5c20a360bc85ecae27dbd9c93ce56930450df4,1202.9107730388641,False,click,testRsp,587,[],choice-response,Out of time,650b27e2f10685b783942468,2023-09-20 13:12:01-04:00,lab8_0,5988,119,maintaskTrials
64f35663abb040f67b21100b,default,0,fe309edf43732330d5475d2dca5c20a360bc85ecae27dbd9c93ce56930450df4,1202.9107730388641,False,click,testRsp,799,[],choice-response,In time,650b27e2f10685b783942468,2023-09-20 13:12:01-04:00,lab1_90,6188,120,maintaskTrials
64f35663abb040f67b21100b,default,0,fe309edf43732330d5475d2dca5c20a360bc85ecae27dbd9c93ce56930450df4,1202.9107730388641,False,click,testRsp,766,[],choice-response,Out of time,650b27e2f10685b783942468,2023-09-20 13:12:01-04:00,tone1_30,6148,121,maintaskTrials
64f35663abb040f67b21100b,default,0,fe309edf43732330d5475d2dca5c20a360bc85ecae27dbd9c93ce56930450df4,1202.9107730388641,False,click,testRsp,718,[],choice-response,Out of time,650b27e2f10685b783942468,2023-09-20 13:12:01-04:00,lab8_30,6093,122,maintaskTrials
64f35663abb040f67b21100b,default,0,fe309edf43732330d5475d2dca5c20a360bc85ecae27dbd9c93ce56930450df4,1202.9107730388641,False,click,testRsp,733,[],choice-response,Out of time,650b27e2f10685b783942468,2023-09-20 13:12:01-04:00,add1_90,6122,123,maintaskTrials
64f35663abb040f67b21100b,default,0,fe309edf43732330d5475d2dca5c20a360bc85ecae27dbd9c93ce56930450df4,1202.9107730388641,False,click,testRsp,525,[],choice-response,Out of time,650b27e2f10685b783942468,2023-09-20 13:12:01-04:00,tone8_120,5901,124,maintaskTrials
64f35663abb040f67b21100b,default,0,fe309edf43732330d5475d2dca5c20a360bc85ecae27dbd9c93ce56930450df4,1202.9107730388641,False,click,testRsp,759,[],choice-response,In time,650b27e2f10685b783942468,2023-09-20 13:12:01-04:00,add8_0,6112,125,maintaskTrials
64f35663abb040f67b21100b,default,0,fe309edf43732330d5475d2dca5c20a360bc85ecae27dbd9c93ce56930450df4,1202.9107730388641,False,click,testRsp,728,[],choice-response,Out of time,650b27e2f10685b783942468,2023-09-20 13:12:01-04:00,tone1_0,6078,126,maintaskTrials
64f35663abb040f67b21100b,default,0,fe309edf43732330d5475d2dca5c20a360bc85ecae27dbd9c93ce56930450df4,1202.9107730388641,False,click,testRsp,523,[],choice-response,Out of time,650b27e2f10685b783942468,2023-09-20 13:12:01-04:00,add8_90,5895,127,maintaskTrials
64f35663abb040f67b21100b,default,0,fe309edf43732330d5475d2dca5c20a360bc85ecae27dbd9c93ce56930450df4,1202.9107730388641,False,click,testRsp,665,[],choice-response,Out of time,650b27e2f10685b783942468,2023-09-20 13:12:01-04:00,tone8_60,6020,128,maintaskTrials
64f35663abb040f67b21100b,default,0,fe309edf43732330d5475d2dca5c20a360bc85ecae27dbd9c93ce56930450df4,1202.9107730388641,False,click,testRsp,718,[],choice-response,Out of time,650b27e2f10685b783942468,2023-09-20 13:12:01-04:00,tone8_90,6097,129,maintaskTrials
64f35663abb040f67b21100b,default,0,fe309edf43732330d5475d2dca5c20a360bc85ecae27dbd9c93ce56930450df4,1202.9107730388641,False,click,testRsp,545,[],choice-response,In time,650b27e2f10685b783942468,2023-09-20 13:12:01-04:00,lab8_60,5909,130,maintaskTrials
64f35663abb040f67b21100b,default,0,fe309edf43732330d5475d2dca5c20a360bc85ecae27dbd9c93ce56930450df4,1202.9107730388641,False,click,testRsp,793,[],choice-response,Out of time,650b27e2f10685b783942468,2023-09-20 13:12:01-04:00,lab8_0,6164,131,maintaskTrials
64f35663abb040f67b21100b,default,0,fe309edf43732330d5475d2dca5c20a360bc85ecae27dbd9c93ce56930450df4,1202.9107730388641,False,click,testRsp,3849,[],choice-response,Out of time,650b27e2f10685b783942468,2023-09-20 13:12:01-04:00,tone8_30,9234,132,maintaskTrials
64f35663abb040f67b21100b,default,0,fe309edf43732330d5475d2dca5c20a360bc85ecae27dbd9c93ce56930450df4,1202.9107730388641,False,click,testRsp,514,[],choice-response,Out of time,650b27e2f10685b783942468,2023-09-20 13:12:01-04:00,tone8_0,5894,133,maintaskTrials
64f35663abb040f67b21100b,default,0,fe309edf43732330d5475d2dca5c20a360bc85ecae27dbd9c93ce56930450df4,1202.9107730388641,False,click,testRsp,819,[],choice-response,Out of time,650b27e2f10685b783942468,2023-09-20 13:12:01-04:00,add8_30,6186,134,maintaskTrials
64f35663abb040f67b21100b,default,0,fe309edf43732330d5475d2dca5c20a360bc85ecae27dbd9c93ce56930450df4,1202.9107730388641,False,click,testRsp,720,[],choice-response,Out of time,650b27e2f10685b783942468,2023-09-20 13:12:01-04:00,add1_30,6088,135,maintaskTrials
64f35663abb040f67b21100b,default,0,fe309edf43732330d5475d2dca5c20a360bc85ecae27dbd9c93ce56930450df4,1202.9107730388641,False,click,testRsp,1552,[],choice-response,In time,650b27e2f10685b783942468,2023-09-20 13:12:01-04:00,add8_60,6930,136,maintaskTrials
64f35663abb040f67b21100b,default,0,fe309edf43732330d5475d2dca5c20a360bc85ecae27dbd9c93ce56930450df4,1202.9107730388641,False,click,testRsp,7991,[],choice-response,Out of time,650b27e2f10685b783942468,2023-09-20 13:12:01-04:00,add1_90,13358,137,maintaskTrials
64f35663abb040f67b21100b,default,0,fe309edf43732330d5475d2dca5c20a360bc85ecae27dbd9c93ce56930450df4,1202.9107730388641,False,click,testRsp,594,[],choice-response,Out of time,650b27e2f10685b783942468,2023-09-20 13:12:01-04:00,tone1_60,6000,138,maintaskTrials
64f35663abb040f67b21100b,default,0,fe309edf43732330d5475d2dca5c20a360bc85ecae27dbd9c93ce56930450df4,1202.9107730388641,False,click,testRsp,555,[],choice-response,Out of time,650b27e2f10685b783942468,2023-09-20 13:12:01-04:00,add1_60,5934,139,maintaskTrials
64f35663abb040f67b21100b,default,0,fe309edf43732330d5475d2dca5c20a360bc85ecae27dbd9c93ce56930450df4,1202.9107730388641,False,click,testRsp,547,[],choice-response,Out of time,650b27e2f10685b783942468,2023-09-20 13:12:01-04:00,lab8_30,5895,140,maintaskTrials
64f35663abb040f67b21100b,default,0,fe309edf43732330d5475d2dca5c20a360bc85ecae27dbd9c93ce56930450df4,1202.9107730388641,False,click,testRsp,2644,[],choice-response,Out of time,650b27e2f10685b783942468,2023-09-20 13:12:01-04:00,lab1_120,8041,141,maintaskTrials
64f35663abb040f67b21100b,default,0,fe309edf43732330d5475d2dca5c20a360bc85ecae27dbd9c93ce56930450df4,1202.9107730388641,False,click,testRsp,683,[],choice-response,In time,650b27e2f10685b783942468,2023-09-20 13:12:01-04:00,lab1_60,6038,142,maintaskTrials
64f35663abb040f67b21100b,default,0,fe309edf43732330d5475d2dca5c20a360bc85ecae27dbd9c93ce56930450df4,1202.9107730388641,False,click,testRsp,626,[],choice-response,Out of time,650b27e2f10685b783942468,2023-09-20 13:12:01-04:00,tone1_90,6014,143,maintaskTrials
64f35663abb040f67b21100b,default,0,fe309edf43732330d5475d2dca5c20a360bc85ecae27dbd9c93ce56930450df4,1202.9107730388641,False,click,testRsp,568,[],choice-response,Out of time,650b27e2f10685b783942468,2023-09-20 13:12:01-04:00,tone8_120,5939,144,maintaskTrials
64f35663abb040f67b21100b,default,0,fe309edf43732330d5475d2dca5c20a360bc85ecae27dbd9c93ce56930450df4,1202.9107730388641,False,click,testRsp,536,[],choice-response,Out of time,650b27e2f10685b783942468,2023-09-20 13:12:01-04:00,add1_120,5923,145,maintaskTrials
64f35663abb040f67b21100b,default,0,fe309edf43732330d5475d2dca5c20a360bc85ecae27dbd9c93ce56930450df4,1202.9107730388641,False,click,testRsp,1217,[],choice-response,In time,650b27e2f10685b783942468,2023-09-20 13:12:01-04:00,lab1_30,6590,146,maintaskTrials
64f35663abb040f67b21100b,default,0,fe309edf43732330d5475d2dca5c20a360bc85ecae27dbd9c93ce56930450df4,1202.9107730388641,False,click,testRsp,673,[],choice-response,Out of time,650b27e2f10685b783942468,2023-09-20 13:12:01-04:00,lab1_90,6040,147,maintaskTrials
64f35663abb040f67b21100b,default,0,fe309edf43732330d5475d2dca5c20a360bc85ecae27dbd9c93ce56930450df4,1202.9107730388641,False,click,testRsp,560,[],choice-response,In time,650b27e2f10685b783942468,2023-09-20 13:12:01-04:00,add8_0,5934,148,maintaskTrials
64f35663abb040f67b21100b,default,0,fe309edf43732330d5475d2dca5c20a360bc85ecae27dbd9c93ce56930450df4,1202.9107730388641,False,click,testRsp,652,[],choice-response,In time,650b27e2f10685b783942468,2023-09-20 13:12:01-04:00,add1_0,6029,149,maintaskTrials
64f35663abb040f67b21100b,default,0,fe309edf43732330d5475d2dca5c20a360bc85ecae27dbd9c93ce56930450df4,1202.9107730388641,False,click,testRsp,674,[],choice-response,Out of time,650b27e2f10685b783942468,2023-09-20 13:12:01-04:00,lab8_120,6063,150,maintaskTrials
64f35663abb040f67b21100b,default,0,fe309edf43732330d5475d2dca5c20a360bc85ecae27dbd9c93ce56930450df4,1202.9107730388641,False,click,testRsp,1364,[],choice-response,Out of time,650b27e2f10685b783942468,2023-09-20 13:12:01-04:00,lab1_0,6738,151,maintaskTrials
64f35663abb040f67b21100b,default,0,fe309edf43732330d5475d2dca5c20a360bc85ecae27dbd9c93ce56930450df4,1202.9107730388641,False,click,testRsp,858,[],choice-response,Out of time,650b27e2f10685b783942468,2023-09-20 13:12:01-04:00,tone1_30,6232,152,maintaskTrials
64f35663abb040f67b21100b,default,0,fe309edf43732330d5475d2dca5c20a360bc85ecae27dbd9c93ce56930450df4,1202.9107730388641,False,click,testRsp,625,[],choice-response,Out of time,650b27e2f10685b783942468,2023-09-20 13:12:01-04:00,tone1_0,6022,153,maintaskTrials
64f35663abb040f67b21100b,default,0,fe309edf43732330d5475d2dca5c20a360bc85ecae27dbd9c93ce56930450df4,1202.9107730388641,False,click,testRsp,825,[],choice-response,In time,650b27e2f10685b783942468,2023-09-20 13:12:01-04:00,lab8_90,6210,154,maintaskTrials
64f35663abb040f67b21100b,default,0,fe309edf43732330d5475d2dca5c20a360bc85ecae27dbd9c93ce56930450df4,1202.9107730388641,False,click,testRsp,1104,[],choice-response,Out of time,650b27e2f10685b783942468,2023-09-20 13:12:01-04:00,add8_120,6487,155,maintaskTrials
64f35663abb040f67b21100b,default,0,fe309edf43732330d5475d2dca5c20a360bc85ecae27dbd9c93ce56930450df4,1202.9107730388641,False,click,testRsp,518,[],choice-response,Out of time,650b27e2f10685b783942468,2023-09-20 13:12:01-04:00,tone1_120,5884,156,maintaskTrials
64f35663abb040f67b21100b,default,0,8a8e3e646c105c1650bf41c5f6e2c9358f99b3260a376c7e9161aa99f2f2fcb6,1214.4668819904327,True,keypress,exampleRsp_lab,9302,['Out of time'],choice-response,Out of time,650b27e2f10685b783942468,2023-09-20 13:12:01-04:00,lab1_150,18156,1,example_lab
64f35663abb040f67b21100b,default,0,8a8e3e646c105c1650bf41c5f6e2c9358f99b3260a376c7e9161aa99f2f2fcb6,1214.4668819904327,True,keypress,exampleRsp_lab,2738,['Out of time'],choice-response,Out of time,650b27e2f10685b783942468,2023-09-20 13:12:01-04:00,lab8_150,11159,2,example_lab
64f35663abb040f67b21100b,default,0,8a8e3e646c105c1650bf41c5f6e2c9358f99b3260a376c7e9161aa99f2f2fcb6,1214.4668819904327,True,keypress,exampleRsp_lab,3913,['Out of time'],choice-response,Out of time,650b27e2f10685b783942468,2023-09-20 13:12:01-04:00,add1_150,12524,3,example_lab
64f35663abb040f67b21100b,default,0,8a8e3e646c105c1650bf41c5f6e2c9358f99b3260a376c7e9161aa99f2f2fcb6,1214.4668819904327,True,keypress,exampleRsp_tone,2215,['Out of time'],choice-response,Out of time,650b27e2f10685b783942468,2023-09-20 13:12:01-04:00,tone1_150,10613,4,example_tone
64f35663abb040f67b21100b,default,0,8a8e3e646c105c1650bf41c5f6e2c9358f99b3260a376c7e9161aa99f2f2fcb6,1214.4668819904327,True,keypress,exampleRsp_tone,4865,['Out of time'],choice-response,Out of time,650b27e2f10685b783942468,2023-09-20 13:12:01-04:00,tone8_150,13357,5,example_tone
64f35663abb040f67b21100b,default,0,8a8e3e646c105c1650bf41c5f6e2c9358f99b3260a376c7e9161aa99f2f2fcb6,1214.4668819904327,True,keypress,exampleRsp_lab,1439,['Out of time'],choice-response,Out of time,650b27e2f10685b783942468,2023-09-20 13:12:01-04:00,add8_150,10095,6,example_lab
64f35663abb040f67b21100b,default,0,8a8e3e646c105c1650bf41c5f6e2c9358f99b3260a376c7e9161aa99f2f2fcb6,1214.4668819904327,False,keypress,testRsp,2720,[],choice-response,Out of time,650b27e2f10685b783942468,2023-09-20 13:12:01-04:00,lab8_120,8752,7,maintaskTrials
64f35663abb040f67b21100b,default,0,8a8e3e646c105c1650bf41c5f6e2c9358f99b3260a376c7e9161aa99f2f2fcb6,1214.4668819904327,False,keypress,testRsp,1419,[],choice-response,In time,650b27e2f10685b783942468,2023-09-20 13:12:01-04:00,lab1_120,7331,8,maintaskTrials
64f35663abb040f67b21100b,default,0,8a8e3e646c105c1650bf41c5f6e2c9358f99b3260a376c7e9161aa99f2f2fcb6,1214.4668819904327,False,keypress,testRsp,1845,[],choice-response,Out of time,650b27e2f10685b783942468,2023-09-20 13:12:01-04:00,tone1_0,7700,9,maintaskTrials
64f35663abb040f67b21100b,default,0,8a8e3e646c105c1650bf41c5f6e2c9358f99b3260a376c7e9161aa99f2f2fcb6,1214.4668819904327,False,keypress,testRsp,1078,[],choice-response,In time,650b27e2f10685b783942468,2023-09-20 13:12:01-04:00,tone1_30,7145,10,maintaskTrials
64f35663abb040f67b21100b,default,0,8a8e3e646c105c1650bf41c5f6e2c9358f99b3260a376c7e9161aa99f2f2fcb6,1214.4668819904327,False,keypress,testRsp,2210,[],choice-response,Out of time,650b27e2f10685b783942468,2023-09-20 13:12:01-04:00,tone8_60,8164,11,maintaskTrials
64f35663abb040f67b21100b,default,0,8a8e3e646c105c1650bf41c5f6e2c9358f99b3260a376c7e9161aa99f2f2fcb6,1214.4668819904327,False,keypress,testRsp,2209,[],choice-response,Out of time,650b27e2f10685b783942468,2023-09-20 13:12:01-04:00,add8_90,8057,12,maintaskTrials
64f35663abb040f67b21100b,default,0,8a8e3e646c105c1650bf41c5f6e2c9358f99b3260a376c7e9161aa99f2f2fcb6,1214.4668819904327,False,keypress,testRsp,1124,[],choice-response,In time,650b27e2f10685b783942468,2023-09-20 13:12:01-04:00,lab1_90,7085,13,maintaskTrials
64f35663abb040f67b21100b,default,0,8a8e3e646c105c1650bf41c5f6e2c9358f99b3260a376c7e9161aa99f2f2fcb6,1214.4668819904327,False,keypress,testRsp,2069,[],choice-response,In time,650b27e2f10685b783942468,2023-09-20 13:12:01-04:00,add1_90,7972,14,maintaskTrials
64f35663abb040f67b21100b,default,0,8a8e3e646c105c1650bf41c5f6e2c9358f99b3260a376c7e9161aa99f2f2fcb6,1214.4668819904327,False,keypress,testRsp,806,[],choice-response,In time,650b27e2f10685b783942468,2023-09-20 13:12:01-04:00,add1_0,6837,15,maintaskTrials
64f35663abb040f67b21100b,default,0,8a8e3e646c105c1650bf41c5f6e2c9358f99b3260a376c7e9161aa99f2f2fcb6,1214.4668819904327,False,keypress,testRsp,630,[],choice-response,In time,650b27e2f10685b783942468,2023-09-20 13:12:01-04:00,lab1_60,6491,16,maintaskTrials
64f35663abb040f67b21100b,default,0,8a8e3e646c105c1650bf41c5f6e2c9358f99b3260a376c7e9161aa99f2f2fcb6,1214.4668819904327,False,keypress,testRsp,3541,[],choice-response,Out of time,650b27e2f10685b783942468,2023-09-20 13:12:01-04:00,lab8_60,9482,17,maintaskTrials
64f35663abb040f67b21100b,default,0,8a8e3e646c105c1650bf41c5f6e2c9358f99b3260a376c7e9161aa99f2f2fcb6,1214.4668819904327,False,keypress,testRsp,812,[],choice-response,Out of time,650b27e2f10685b783942468,2023-09-20 13:12:01-04:00,tone8_120,6625,18,maintaskTrials
64f35663abb040f67b21100b,default,0,8a8e3e646c105c1650bf41c5f6e2c9358f99b3260a376c7e9161aa99f2f2fcb6,1214.4668819904327,False,keypress,testRsp,652,[],choice-response,In time,650b27e2f10685b783942468,2023-09-20 13:12:01-04:00,add8_60,6671,19,maintaskTrials
64f35663abb040f67b21100b,default,0,8a8e3e646c105c1650bf41c5f6e2c9358f99b3260a376c7e9161aa99f2f2fcb6,1214.4668819904327,False,keypress,testRsp,924,[],choice-response,In time,650b27e2f10685b783942468,2023-09-20 13:12:01-04:00,add8_30,7046,20,maintaskTrials
64f35663abb040f67b21100b,default,0,8a8e3e646c105c1650bf41c5f6e2c9358f99b3260a376c7e9161aa99f2f2fcb6,1214.4668819904327,False,keypress,testRsp,1876,[],choice-response,Out of time,650b27e2f10685b783942468,2023-09-20 13:12:01-04:00,add8_120,7753,21,maintaskTrials
64f35663abb040f67b21100b,default,0,8a8e3e646c105c1650bf41c5f6e2c9358f99b3260a376c7e9161aa99f2f2fcb6,1214.4668819904327,False,keypress,testRsp,968,[],choice-response,Out of time,650b27e2f10685b783942468,2023-09-20 13:12:01-04:00,lab1_30,7217,22,maintaskTrials
64f35663abb040f67b21100b,default,0,8a8e3e646c105c1650bf41c5f6e2c9358f99b3260a376c7e9161aa99f2f2fcb6,1214.4668819904327,False,keypress,testRsp,635,[],choice-response,Out of time,650b27e2f10685b783942468,2023-09-20 13:12:01-04:00,tone8_90,6465,23,maintaskTrials
64f35663abb040f67b21100b,default,0,8a8e3e646c105c1650bf41c5f6e2c9358f99b3260a376c7e9161aa99f2f2fcb6,1214.4668819904327,False,keypress,testRsp,924,[],choice-response,In time,650b27e2f10685b783942468,2023-09-20 13:12:01-04:00,tone8_30,6838,24,maintaskTrials
64f35663abb040f67b21100b,default,0,8a8e3e646c105c1650bf41c5f6e2c9358f99b3260a376c7e9161aa99f2f2fcb6,1214.4668819904327,False,keypress,testRsp,4108,[],choice-response,Out of time,650b27e2f10685b783942468,2023-09-20 13:12:01-04:00,lab1_0,9974,25,maintaskTrials
64f35663abb040f67b21100b,default,0,8a8e3e646c105c1650bf41c5f6e2c9358f99b3260a376c7e9161aa99f2f2fcb6,1214.4668819904327,False,keypress,testRsp,1995,[],choice-response,In time,650b27e2f10685b783942468,2023-09-20 13:12:01-04:00,lab8_30,7886,26,maintaskTrials
64f35663abb040f67b21100b,default,0,8a8e3e646c105c1650bf41c5f6e2c9358f99b3260a376c7e9161aa99f2f2fcb6,1214.4668819904327,False,keypress,testRsp,1535,[],choice-response,Out of time,650b27e2f10685b783942468,2023-09-20 13:12:01-04:00,tone1_60,7444,27,maintaskTrials
64f35663abb040f67b21100b,default,0,8a8e3e646c105c1650bf41c5f6e2c9358f99b3260a376c7e9161aa99f2f2fcb6,1214.4668819904327,False,keypress,testRsp,827,[],choice-response,In time,650b27e2f10685b783942468,2023-09-20 13:12:01-04:00,lab8_0,6758,28,maintaskTrials
64f35663abb040f67b21100b,default,0,8a8e3e646c105c1650bf41c5f6e2c9358f99b3260a376c7e9161aa99f2f2fcb6,1214.4668819904327,False,keypress,testRsp,441,[],choice-response,Out of time,650b27e2f10685b783942468,2023-09-20 13:12:01-04:00,tone1_90,6470,29,maintaskTrials
64f35663abb040f67b21100b,default,0,8a8e3e646c105c1650bf41c5f6e2c9358f99b3260a376c7e9161aa99f2f2fcb6,1214.4668819904327,False,keypress,testRsp,834,[],choice-response,In time,650b27e2f10685b783942468,2023-09-20 13:12:01-04:00,tone1_120,6609,30,maintaskTrials
64f35663abb040f67b21100b,default,0,8a8e3e646c105c1650bf41c5f6e2c9358f99b3260a376c7e9161aa99f2f2fcb6,1214.4668819904327,False,keypress,testRsp,1174,[],choice-response,Out of time,650b27e2f10685b783942468,2023-09-20 13:12:01-04:00,tone8_0,7221,31,maintaskTrials
64f35663abb040f67b21100b,default,0,8a8e3e646c105c1650bf41c5f6e2c9358f99b3260a376c7e9161aa99f2f2fcb6,1214.4668819904327,False,keypress,testRsp,3070,[],choice-response,In time,650b27e2f10685b783942468,2023-09-20 13:12:01-04:00,lab8_90,8950,32,maintaskTrials
64f35663abb040f67b21100b,default,0,8a8e3e646c105c1650bf41c5f6e2c9358f99b3260a376c7e9161aa99f2f2fcb6,1214.4668819904327,False,keypress,testRsp,771,[],choice-response,In time,650b27e2f10685b783942468,2023-09-20 13:12:01-04:00,add8_0,6628,33,maintaskTrials
64f35663abb040f67b21100b,default,0,8a8e3e646c105c1650bf41c5f6e2c9358f99b3260a376c7e9161aa99f2f2fcb6,1214.4668819904327,False,keypress,testRsp,1527,[],choice-response,In time,650b27e2f10685b783942468,2023-09-20 13:12:01-04:00,add1_60,7576,34,maintaskTrials
64f35663abb040f67b21100b,default,0,8a8e3e646c105c1650bf41c5f6e2c9358f99b3260a376c7e9161aa99f2f2fcb6,1214.4668819904327,False,keypress,testRsp,401,[],choice-response,In time,650b27e2f10685b783942468,2023-09-20 13:12:01-04:00,add1_30,6367,35,maintaskTrials
64f35663abb040f67b21100b,default,0,8a8e3e646c105c1650bf41c5f6e2c9358f99b3260a376c7e9161aa99f2f2fcb6,1214.4668819904327,False,keypress,testRsp,2905,[],choice-response,Out of time,650b27e2f10685b783942468,2023-09-20 13:12:01-04:00,add1_120,8730,36,maintaskTrials
64f35663abb040f67b21100b,default,0,8a8e3e646c105c1650bf41c5f6e2c9358f99b3260a376c7e9161aa99f2f2fcb6,1214.4668819904327,False,keypress,testRsp,1314,[],choice-response,Out of time,650b27e2f10685b783942468,2023-09-20 13:12:01-04:00,tone1_90,7265,37,maintaskTrials
64f35663abb040f67b21100b,default,0,8a8e3e646c105c1650bf41c5f6e2c9358f99b3260a376c7e9161aa99f2f2fcb6,1214.4668819904327,False,keypress,testRsp,789,[],choice-response,In time,650b27e2f10685b783942468,2023-09-20 13:12:01-04:00,add8_30,6675,38,maintaskTrials
64f35663abb040f67b21100b,default,0,8a8e3e646c105c1650bf41c5f6e2c9358f99b3260a376c7e9161aa99f2f2fcb6,1214.4668819904327,False,keypress,testRsp,508,[],choice-response,In time,650b27e2f10685b783942468,2023-09-20 13:12:01-04:00,lab1_60,6324,39,maintaskTrials
64f35663abb040f67b21100b,default,0,8a8e3e646c105c1650bf41c5f6e2c9358f99b3260a376c7e9161aa99f2f2fcb6,1214.4668819904327,False,keypress,testRsp,623,[],choice-response,In time,650b27e2f10685b783942468,2023-09-20 13:12:01-04:00,add8_60,6442,40,maintaskTrials
64f35663abb040f67b21100b,default,0,8a8e3e646c105c1650bf41c5f6e2c9358f99b3260a376c7e9161aa99f2f2fcb6,1214.4668819904327,False,keypress,testRsp,975,[],choice-response,Out of time,650b27e2f10685b783942468,2023-09-20 13:12:01-04:00,lab1_120,6744,41,maintaskTrials
64f35663abb040f67b21100b,default,0,8a8e3e646c105c1650bf41c5f6e2c9358f99b3260a376c7e9161aa99f2f2fcb6,1214.4668819904327,False,keypress,testRsp,904,[],choice-response,In time,650b27e2f10685b783942468,2023-09-20 13:12:01-04:00,tone8_0,6805,42,maintaskTrials
64f35663abb040f67b21100b,default,0,8a8e3e646c105c1650bf41c5f6e2c9358f99b3260a376c7e9161aa99f2f2fcb6,1214.4668819904327,False,keypress,testRsp,1112,[],choice-response,In time,650b27e2f10685b783942468,2023-09-20 13:12:01-04:00,add8_0,6920,43,maintaskTrials
64f35663abb040f67b21100b,default,0,8a8e3e646c105c1650bf41c5f6e2c9358f99b3260a376c7e9161aa99f2f2fcb6,1214.4668819904327,False,keypress,testRsp,736,[],choice-response,Out of time,650b27e2f10685b783942468,2023-09-20 13:12:01-04:00,lab8_120,6497,44,maintaskTrials
64f35663abb040f67b21100b,default,0,8a8e3e646c105c1650bf41c5f6e2c9358f99b3260a376c7e9161aa99f2f2fcb6,1214.4668819904327,False,keypress,testRsp,1452,[],choice-response,In time,650b27e2f10685b783942468,2023-09-20 13:12:01-04:00,lab8_60,7283,45,maintaskTrials
64f35663abb040f67b21100b,default,0,8a8e3e646c105c1650bf41c5f6e2c9358f99b3260a376c7e9161aa99f2f2fcb6,1214.4668819904327,False,keypress,testRsp,1302,[],choice-response,Out of time,650b27e2f10685b783942468,2023-09-20 13:12:01-04:00,lab1_0,7126,46,maintaskTrials
64f35663abb040f67b21100b,default,0,8a8e3e646c105c1650bf41c5f6e2c9358f99b3260a376c7e9161aa99f2f2fcb6,1214.4668819904327,False,keypress,testRsp,869,[],choice-response,In time,650b27e2f10685b783942468,2023-09-20 13:12:01-04:00,tone1_0,6837,47,maintaskTrials
64f35663abb040f67b21100b,default,0,8a8e3e646c105c1650bf41c5f6e2c9358f99b3260a376c7e9161aa99f2f2fcb6,1214.4668819904327,False,keypress,testRsp,357,[],choice-response,Out of time,650b27e2f10685b783942468,2023-09-20 13:12:01-04:00,add1_120,6198,48,maintaskTrials
64f35663abb040f67b21100b,default,0,8a8e3e646c105c1650bf41c5f6e2c9358f99b3260a376c7e9161aa99f2f2fcb6,1214.4668819904327,False,keypress,testRsp,476,[],choice-response,Out of time,650b27e2f10685b783942468,2023-09-20 13:12:01-04:00,add8_120,6356,49,maintaskTrials
64f35663abb040f67b21100b,default,0,8a8e3e646c105c1650bf41c5f6e2c9358f99b3260a376c7e9161aa99f2f2fcb6,1214.4668819904327,False,keypress,testRsp,1383,[],choice-response,In time,650b27e2f10685b783942468,2023-09-20 13:12:01-04:00,lab8_30,7297,50,maintaskTrials
64f35663abb040f67b21100b,default,0,8a8e3e646c105c1650bf41c5f6e2c9358f99b3260a376c7e9161aa99f2f2fcb6,1214.4668819904327,False,keypress,testRsp,657,[],choice-response,Out of time,650b27e2f10685b783942468,2023-09-20 13:12:01-04:00,lab8_90,6466,51,maintaskTrials
64f35663abb040f67b21100b,default,0,8a8e3e646c105c1650bf41c5f6e2c9358f99b3260a376c7e9161aa99f2f2fcb6,1214.4668819904327,False,keypress,testRsp,1086,[],choice-response,In time,650b27e2f10685b783942468,2023-09-20 13:12:01-04:00,tone8_90,6902,52,maintaskTrials
64f35663abb040f67b21100b,default,0,8a8e3e646c105c1650bf41c5f6e2c9358f99b3260a376c7e9161aa99f2f2fcb6,1214.4668819904327,False,keypress,testRsp,1207,[],choice-response,Out of time,650b27e2f10685b783942468,2023-09-20 13:12:01-04:00,tone1_30,6998,53,maintaskTrials
64f35663abb040f67b21100b,default,0,8a8e3e646c105c1650bf41c5f6e2c9358f99b3260a376c7e9161aa99f2f2fcb6,1214.4668819904327,False,keypress,testRsp,665,[],choice-response,In time,650b27e2f10685b783942468,2023-09-20 13:12:01-04:00,tone1_60,6490,54,maintaskTrials
64f35663abb040f67b21100b,default,0,8a8e3e646c105c1650bf41c5f6e2c9358f99b3260a376c7e9161aa99f2f2fcb6,1214.4668819904327,False,keypress,testRsp,789,[],choice-response,Out of time,650b27e2f10685b783942468,2023-09-20 13:12:01-04:00,lab1_90,6594,55,maintaskTrials
64f35663abb040f67b21100b,default,0,8a8e3e646c105c1650bf41c5f6e2c9358f99b3260a376c7e9161aa99f2f2fcb6,1214.4668819904327,False,keypress,testRsp,383,[],choice-response,Out of time,650b27e2f10685b783942468,2023-09-20 13:12:01-04:00,tone8_120,6228,56,maintaskTrials
64f35663abb040f67b21100b,default,0,8a8e3e646c105c1650bf41c5f6e2c9358f99b3260a376c7e9161aa99f2f2fcb6,1214.4668819904327,False,keypress,testRsp,663,[],choice-response,In time,650b27e2f10685b783942468,2023-09-20 13:12:01-04:00,tone8_30,6443,57,maintaskTrials
64f35663abb040f67b21100b,default,0,8a8e3e646c105c1650bf41c5f6e2c9358f99b3260a376c7e9161aa99f2f2fcb6,1214.4668819904327,False,keypress,testRsp,509,[],choice-response,In time,650b27e2f10685b783942468,2023-09-20 13:12:01-04:00,add1_90,6406,58,maintaskTrials
64f35663abb040f67b21100b,default,0,8a8e3e646c105c1650bf41c5f6e2c9358f99b3260a376c7e9161aa99f2f2fcb6,1214.4668819904327,False,keypress,testRsp,803,[],choice-response,Out of time,650b27e2f10685b783942468,2023-09-20 13:12:01-04:00,lab1_30,6588,59,maintaskTrials
64f35663abb040f67b21100b,default,0,8a8e3e646c105c1650bf41c5f6e2c9358f99b3260a376c7e9161aa99f2f2fcb6,1214.4668819904327,False,keypress,testRsp,429,[],choice-response,Out of time,650b27e2f10685b783942468,2023-09-20 13:12:01-04:00,lab8_0,6423,60,maintaskTrials
64f35663abb040f67b21100b,default,0,8a8e3e646c105c1650bf41c5f6e2c9358f99b3260a376c7e9161aa99f2f2fcb6,1214.4668819904327,False,keypress,testRsp,723,[],choice-response,In time,650b27e2f10685b783942468,2023-09-20 13:12:01-04:00,add1_60,6522,61,maintaskTrials
64f35663abb040f67b21100b,default,0,8a8e3e646c105c1650bf41c5f6e2c9358f99b3260a376c7e9161aa99f2f2fcb6,1214.4668819904327,False,keypress,testRsp,4099,[],choice-response,In time,650b27e2f10685b783942468,2023-09-20 13:12:01-04:00,tone1_120,9852,62,maintaskTrials
64f35663abb040f67b21100b,default,0,8a8e3e646c105c1650bf41c5f6e2c9358f99b3260a376c7e9161aa99f2f2fcb6,1214.4668819904327,False,keypress,testRsp,5421,[],choice-response,Out of time,650b27e2f10685b783942468,2023-09-20 13:12:01-04:00,add1_30,11318,63,maintaskTrials
64f35663abb040f67b21100b,default,0,8a8e3e646c105c1650bf41c5f6e2c9358f99b3260a376c7e9161aa99f2f2fcb6,1214.4668819904327,False,keypress,testRsp,5960,[],choice-response,Out of time,650b27e2f10685b783942468,2023-09-20 13:12:01-04:00,tone8_60,11888,64,maintaskTrials
64f35663abb040f67b21100b,default,0,8a8e3e646c105c1650bf41c5f6e2c9358f99b3260a376c7e9161aa99f2f2fcb6,1214.4668819904327,False,keypress,testRsp,836,[],choice-response,In time,650b27e2f10685b783942468,2023-09-20 13:12:01-04:00,add8_90,6628,65,maintaskTrials
64f35663abb040f67b21100b,default,0,8a8e3e646c105c1650bf41c5f6e2c9358f99b3260a376c7e9161aa99f2f2fcb6,1214.4668819904327,False,keypress,testRsp,522,[],choice-response,In time,650b27e2f10685b783942468,2023-09-20 13:12:01-04:00,add1_0,6238,66,maintaskTrials
64f35663abb040f67b21100b,default,0,8a8e3e646c105c1650bf41c5f6e2c9358f99b3260a376c7e9161aa99f2f2fcb6,1214.4668819904327,False,keypress,testRsp,623,[],choice-response,In time,650b27e2f10685b783942468,2023-09-20 13:12:01-04:00,lab1_0,6495,67,maintaskTrials
64f35663abb040f67b21100b,default,0,8a8e3e646c105c1650bf41c5f6e2c9358f99b3260a376c7e9161aa99f2f2fcb6,1214.4668819904327,False,keypress,testRsp,1985,[],choice-response,In time,650b27e2f10685b783942468,2023-09-20 13:12:01-04:00,add1_0,7828,68,maintaskTrials
64f35663abb040f67b21100b,default,0,8a8e3e646c105c1650bf41c5f6e2c9358f99b3260a376c7e9161aa99f2f2fcb6,1214.4668819904327,False,keypress,testRsp,2960,[],choice-response,Out of time,650b27e2f10685b783942468,2023-09-20 13:12:01-04:00,lab1_60,8732,69,maintaskTrials
64f35663abb040f67b21100b,default,0,8a8e3e646c105c1650bf41c5f6e2c9358f99b3260a376c7e9161aa99f2f2fcb6,1214.4668819904327,False,keypress,testRsp,925,[],choice-response,Out of time,650b27e2f10685b783942468,2023-09-20 13:12:01-04:00,tone8_0,6838,70,maintaskTrials
64f35663abb040f67b21100b,default,0,8a8e3e646c105c1650bf41c5f6e2c9358f99b3260a376c7e9161aa99f2f2fcb6,1214.4668819904327,False,keypress,testRsp,2055,[],choice-response,Out of time,650b27e2f10685b783942468,2023-09-20 13:12:01-04:00,lab8_90,7922,71,maintaskTrials
64f35663abb040f67b21100b,default,0,8a8e3e646c105c1650bf41c5f6e2c9358f99b3260a376c7e9161aa99f2f2fcb6,1214.4668819904327,False,keypress,testRsp,809,[],choice-response,Out of time,650b27e2f10685b783942468,2023-09-20 13:12:01-04:00,lab1_120,6750,72,maintaskTrials
64f35663abb040f67b21100b,default,0,8a8e3e646c105c1650bf41c5f6e2c9358f99b3260a376c7e9161aa99f2f2fcb6,1214.4668819904327,False,keypress,testRsp,978,[],choice-response,In time,650b27e2f10685b783942468,2023-09-20 13:12:01-04:00,lab8_0,6799,73,maintaskTrials
