expt_id,group_id,network_error_repeat,participant_id,participation_duration,response_correct,response_mode,response_name,response_rt,response_target,response_type,response_value,session_id,stimuli_presented,trial_duration,trial_num,trial_template
5f7d2e104bfca86e4f58ef9a,Group_FJ,0,885d1eea80d979e945a735ff9ec5071e70109282de347645170e42232acd24dd,1704,FALSE,click,survey_noise,5130,[],choice-response,2,5fbc5590be36f3ba328bd883,logistics_noise,6231,1,logisticsQuestionnaire
5f7d2e104bfca86e4f58ef9a,Group_FJ,0,885d1eea80d979e945a735ff9ec5071e70109282de347645170e42232acd24dd,1704,FALSE,click,survey_headphone,7748,[],choice-response,Built in Laptop/Desktop Speaker (Please use headphones if possible!),5fbc5590be36f3ba328bd883,logistic_headphone,9319,2,logisticsQuestionnaire
5f7d2e104bfca86e4f58ef9a,Group_FJ,0,885d1eea80d979e945a735ff9ec5071e70109282de347645170e42232acd24dd,1704,TRUE,keypress,exampleresponse_s_F,10574,['Shorter'],choice-response,Shorter,5fbc5590be36f3ba328bd883,300ms_short,17217,3,example_s
5f7d2e104bfca86e4f58ef9a,Group_FJ,0,885d1eea80d979e945a735ff9ec5071e70109282de347645170e42232acd24dd,1704,TRUE,keypress,exampleresponse_l_J,3561,['Longer'],choice-response,Longer,5fbc5590be36f3ba328bd883,300ms_long,10718,4,example_l
5f7d2e104bfca86e4f58ef9a,Group_FJ,0,885d1eea80d979e945a735ff9ec5071e70109282de347645170e42232acd24dd,1704,TRUE,keypress,exampleresponse_s_F,1924,['Shorter'],choice-response,Shorter,5fbc5590be36f3ba328bd883,300ms_short,8787,5,example_s
5f7d2e104bfca86e4f58ef9a,Group_FJ,0,885d1eea80d979e945a735ff9ec5071e70109282de347645170e42232acd24dd,1704,TRUE,keypress,exampleresponse_l_J,3454,['Longer'],choice-response,Longer,5fbc5590be36f3ba328bd883,300ms_long,10188,6,example_l
5f7d2e104bfca86e4f58ef9a,Group_FJ,0,885d1eea80d979e945a735ff9ec5071e70109282de347645170e42232acd24dd,1704,TRUE,keypress,practiceresponse_l_J,5651,['Longer'],choice-response,Longer,5fbc5590be36f3ba328bd883,300ms_delay_2_86,12657,7,practiceTrials_l
5f7d2e104bfca86e4f58ef9a,Group_FJ,0,885d1eea80d979e945a735ff9ec5071e70109282de347645170e42232acd24dd,1704,TRUE,keypress,practiceresponse_s_F,3993,['Shorter'],choice-response,Shorter,5fbc5590be36f3ba328bd883,300ms_delay_2_81,10518,8,practiceTrials_s
5f7d2e104bfca86e4f58ef9a,Group_FJ,0,885d1eea80d979e945a735ff9ec5071e70109282de347645170e42232acd24dd,1704,TRUE,keypress,practiceresponse_s_F,1834,['Shorter'],choice-response,Shorter,5fbc5590be36f3ba328bd883,300ms_delay_2_81,8847,9,practiceTrials_s
5f7d2e104bfca86e4f58ef9a,Group_FJ,0,885d1eea80d979e945a735ff9ec5071e70109282de347645170e42232acd24dd,1704,TRUE,keypress,practiceresponse_l_J,899,['Longer'],choice-response,Longer,5fbc5590be36f3ba328bd883,300ms_delay_2_86,7968,10,practiceTrials_l
5f7d2e104bfca86e4f58ef9a,Group_FJ,0,885d1eea80d979e945a735ff9ec5071e70109282de347645170e42232acd24dd,1704,TRUE,keypress,practiceresponse_l_J,1341,['Longer'],choice-response,Longer,5fbc5590be36f3ba328bd883,300ms_delay_2_86,8383,11,practiceTrials_l
5f7d2e104bfca86e4f58ef9a,Group_FJ,0,885d1eea80d979e945a735ff9ec5071e70109282de347645170e42232acd24dd,1704,TRUE,keypress,practiceresponse_s_F,1255,['Shorter'],choice-response,Shorter,5fbc5590be36f3ba328bd883,300ms_delay_2_81,7765,12,practiceTrials_s
5f7d2e104bfca86e4f58ef9a,Group_FJ,0,885d1eea80d979e945a735ff9ec5071e70109282de347645170e42232acd24dd,1704,TRUE,keypress,practiceresponse_s_F,1358,['Shorter'],choice-response,Shorter,5fbc5590be36f3ba328bd883,300ms_delay_2_81,8805,13,practiceTrials_s
5f7d2e104bfca86e4f58ef9a,Group_FJ,0,885d1eea80d979e945a735ff9ec5071e70109282de347645170e42232acd24dd,1704,TRUE,keypress,practiceresponse_l_J,626,['Longer'],choice-response,Longer,5fbc5590be36f3ba328bd883,300ms_delay_2_86,7183,14,practiceTrials_l
5f7d2e104bfca86e4f58ef9a,Group_FJ,0,885d1eea80d979e945a735ff9ec5071e70109282de347645170e42232acd24dd,1704,TRUE,keypress,practiceresponse_l_J,692,['Longer'],choice-response,Longer,5fbc5590be36f3ba328bd883,300ms_delay_2_86,7450,15,practiceTrials_l
5f7d2e104bfca86e4f58ef9a,Group_FJ,0,885d1eea80d979e945a735ff9ec5071e70109282de347645170e42232acd24dd,1704,TRUE,keypress,practiceresponse_s_F,472,['Shorter'],choice-response,Shorter,5fbc5590be36f3ba328bd883,300ms_delay_2_81,6981,16,practiceTrials_s
5f7d2e104bfca86e4f58ef9a,Group_FJ,0,885d1eea80d979e945a735ff9ec5071e70109282de347645170e42232acd24dd,1704,FALSE,keypress,practiceresponse_s_F,953,['Shorter'],choice-response,Longer,5fbc5590be36f3ba328bd883,300ms_delay_2_81,7664,17,practiceTrials_s
5f7d2e104bfca86e4f58ef9a,Group_FJ,0,885d1eea80d979e945a735ff9ec5071e70109282de347645170e42232acd24dd,1704,FALSE,keypress,practiceresponse_l_J,850,['Longer'],choice-response,Shorter,5fbc5590be36f3ba328bd883,300ms_delay_2_86,7400,18,practiceTrials_l
5f7d2e104bfca86e4f58ef9a,Group_FJ,0,885d1eea80d979e945a735ff9ec5071e70109282de347645170e42232acd24dd,1704,TRUE,keypress,testresponse_s_F,820,['Shorter'],choice-response,Shorter,5fbc5590be36f3ba328bd883,300ms_delay_2_51,4599,19,maintaskTrials_2_s
5f7d2e104bfca86e4f58ef9a,Group_FJ,0,885d1eea80d979e945a735ff9ec5071e70109282de347645170e42232acd24dd,1704,FALSE,keypress,testresponse_s_F,526,['Shorter'],choice-response,Longer,5fbc5590be36f3ba328bd883,300ms_delay_2_91,5341,20,maintaskTrials_2_s
5f7d2e104bfca86e4f58ef9a,Group_FJ,0,885d1eea80d979e945a735ff9ec5071e70109282de347645170e42232acd24dd,1704,TRUE,keypress,testresponse_s_F,1024,['Shorter'],choice-response,Shorter,5fbc5590be36f3ba328bd883,300ms_delay_2_93,5019,21,maintaskTrials_2_s
5f7d2e104bfca86e4f58ef9a,Group_FJ,0,885d1eea80d979e945a735ff9ec5071e70109282de347645170e42232acd24dd,1704,FALSE,keypress,testresponse_s_F,2105,['Shorter'],choice-response,Longer,5fbc5590be36f3ba328bd883,300ms_delay_2_82,5980,22,maintaskTrials_2_s
5f7d2e104bfca86e4f58ef9a,Group_FJ,0,885d1eea80d979e945a735ff9ec5071e70109282de347645170e42232acd24dd,1704,FALSE,keypress,testresponse_l_J,518,['Longer'],choice-response,Shorter,5fbc5590be36f3ba328bd883,300ms_delay_2_94,4999,23,maintaskTrials_2_l
5f7d2e104bfca86e4f58ef9a,Group_FJ,0,885d1eea80d979e945a735ff9ec5071e70109282de347645170e42232acd24dd,1704,FALSE,keypress,testresponse_s_F,316,['Shorter'],choice-response,Longer,5fbc5590be36f3ba328bd883,300ms_delay_2_53,4652,24,maintaskTrials_2_s
5f7d2e104bfca86e4f58ef9a,Group_FJ,0,885d1eea80d979e945a735ff9ec5071e70109282de347645170e42232acd24dd,1704,FALSE,keypress,testresponse_l_J,489,['Longer'],choice-response,Shorter,5fbc5590be36f3ba328bd883,300ms_delay_2_85,4458,25,maintaskTrials_2_l
5f7d2e104bfca86e4f58ef9a,Group_FJ,0,885d1eea80d979e945a735ff9ec5071e70109282de347645170e42232acd24dd,1704,TRUE,keypress,testresponse_l_J,558,['Longer'],choice-response,Longer,5fbc5590be36f3ba328bd883,300ms_delay_2_56,4407,26,maintaskTrials_2_l
5f7d2e104bfca86e4f58ef9a,Group_FJ,0,885d1eea80d979e945a735ff9ec5071e70109282de347645170e42232acd24dd,1704,FALSE,keypress,testresponse_l_J,642,['Longer'],choice-response,Shorter,5fbc5590be36f3ba328bd883,300ms_delay_2_54,4453,27,maintaskTrials_2_l
5f7d2e104bfca86e4f58ef9a,Group_FJ,0,885d1eea80d979e945a735ff9ec5071e70109282de347645170e42232acd24dd,1704,TRUE,keypress,testresponse_l_J,346,['Longer'],choice-response,Longer,5fbc5590be36f3ba328bd883,300ms_delay_2_84,4257,28,maintaskTrials_2_l
5f7d2e104bfca86e4f58ef9a,Group_FJ,0,885d1eea80d979e945a735ff9ec5071e70109282de347645170e42232acd24dd,1704,FALSE,keypress,testresponse_l_J,695,['Longer'],choice-response,Shorter,5fbc5590be36f3ba328bd883,300ms_delay_2_95,4704,29,maintaskTrials_2_l
5f7d2e104bfca86e4f58ef9a,Group_FJ,0,885d1eea80d979e945a735ff9ec5071e70109282de347645170e42232acd24dd,1704,TRUE,keypress,testresponse_l_J,420,['Longer'],choice-response,Longer,5fbc5590be36f3ba328bd883,300ms_delay_2_96,4444,30,maintaskTrials_2_l
5f7d2e104bfca86e4f58ef9a,Group_FJ,0,885d1eea80d979e945a735ff9ec5071e70109282de347645170e42232acd24dd,1704,FALSE,keypress,testresponse_l_J,908,['Longer'],choice-response,Shorter,5fbc5590be36f3ba328bd883,300ms_delay_2_55,4756,31,maintaskTrials_2_l
5f7d2e104bfca86e4f58ef9a,Group_FJ,0,885d1eea80d979e945a735ff9ec5071e70109282de347645170e42232acd24dd,1704,FALSE,keypress,testresponse_s_F,274,['Shorter'],choice-response,Longer,5fbc5590be36f3ba328bd883,300ms_delay_2_83,4181,32,maintaskTrials_2_s
5f7d2e104bfca86e4f58ef9a,Group_FJ,0,885d1eea80d979e945a735ff9ec5071e70109282de347645170e42232acd24dd,1704,FALSE,keypress,testresponse_s_F,245,['Shorter'],choice-response,Longer,5fbc5590be36f3ba328bd883,300ms_delay_2_52,4121,33,maintaskTrials_2_s
5f7d2e104bfca86e4f58ef9a,Group_FJ,0,885d1eea80d979e945a735ff9ec5071e70109282de347645170e42232acd24dd,1704,FALSE,keypress,testresponse_s_F,5965,['Shorter'],choice-response,Longer,5fbc5590be36f3ba328bd883,300ms_delay_2_81,9862,34,maintaskTrials_2_s
5f7d2e104bfca86e4f58ef9a,Group_FJ,0,885d1eea80d979e945a735ff9ec5071e70109282de347645170e42232acd24dd,1704,FALSE,keypress,testresponse_l_J,1518,['Longer'],choice-response,Shorter,5fbc5590be36f3ba328bd883,300ms_delay_2_86,5949,35,maintaskTrials_2_l
5f7d2e104bfca86e4f58ef9a,Group_FJ,0,885d1eea80d979e945a735ff9ec5071e70109282de347645170e42232acd24dd,1704,FALSE,keypress,testresponse_s_F,1396,['Shorter'],choice-response,Longer,5fbc5590be36f3ba328bd883,300ms_delay_2_92,5575,36,maintaskTrials_2_s
5f7d2e104bfca86e4f58ef9a,Group_FJ,0,885d1eea80d979e945a735ff9ec5071e70109282de347645170e42232acd24dd,1704,TRUE,keypress,testresponse_s_F,5819,['Shorter'],choice-response,Shorter,5fbc5590be36f3ba328bd883,300ms_delay_2_81,9724,37,maintaskTrials_2_s
5f7d2e104bfca86e4f58ef9a,Group_FJ,0,885d1eea80d979e945a735ff9ec5071e70109282de347645170e42232acd24dd,1704,TRUE,keypress,testresponse_l_J,1439,['Longer'],choice-response,Longer,5fbc5590be36f3ba328bd883,300ms_delay_2_95,6057,38,maintaskTrials_2_l
5f7d2e104bfca86e4f58ef9a,Group_FJ,0,885d1eea80d979e945a735ff9ec5071e70109282de347645170e42232acd24dd,1704,TRUE,keypress,testresponse_s_F,2699,['Shorter'],choice-response,Shorter,5fbc5590be36f3ba328bd883,300ms_delay_2_51,6722,39,maintaskTrials_2_s
5f7d2e104bfca86e4f58ef9a,Group_FJ,0,885d1eea80d979e945a735ff9ec5071e70109282de347645170e42232acd24dd,1704,TRUE,keypress,testresponse_l_J,543,['Longer'],choice-response,Longer,5fbc5590be36f3ba328bd883,300ms_delay_2_86,4569,40,maintaskTrials_2_l
5f7d2e104bfca86e4f58ef9a,Group_FJ,0,885d1eea80d979e945a735ff9ec5071e70109282de347645170e42232acd24dd,1704,FALSE,keypress,testresponse_l_J,535,['Longer'],choice-response,Shorter,5fbc5590be36f3ba328bd883,300ms_delay_2_84,4521,41,maintaskTrials_2_l
5f7d2e104bfca86e4f58ef9a,Group_FJ,0,885d1eea80d979e945a735ff9ec5071e70109282de347645170e42232acd24dd,1704,TRUE,keypress,testresponse_l_J,434,['Longer'],choice-response,Longer,5fbc5590be36f3ba328bd883,300ms_delay_2_96,5121,42,maintaskTrials_2_l
5f7d2e104bfca86e4f58ef9a,Group_FJ,0,885d1eea80d979e945a735ff9ec5071e70109282de347645170e42232acd24dd,1704,TRUE,keypress,testresponse_s_F,3297,['Shorter'],choice-response,Shorter,5fbc5590be36f3ba328bd883,300ms_delay_2_52,7124,43,maintaskTrials_2_s
5f7d2e104bfca86e4f58ef9a,Group_FJ,0,885d1eea80d979e945a735ff9ec5071e70109282de347645170e42232acd24dd,1704,FALSE,keypress,testresponse_s_F,1033,['Shorter'],choice-response,Longer,5fbc5590be36f3ba328bd883,300ms_delay_2_83,4939,44,maintaskTrials_2_s
5f7d2e104bfca86e4f58ef9a,Group_FJ,0,885d1eea80d979e945a735ff9ec5071e70109282de347645170e42232acd24dd,1704,FALSE,keypress,testresponse_l_J,1471,['Longer'],choice-response,Shorter,5fbc5590be36f3ba328bd883,300ms_delay_2_56,5305,45,maintaskTrials_2_l
5f7d2e104bfca86e4f58ef9a,Group_FJ,0,885d1eea80d979e945a735ff9ec5071e70109282de347645170e42232acd24dd,1704,FALSE,keypress,testresponse_l_J,1109,['Longer'],choice-response,Shorter,5fbc5590be36f3ba328bd883,300ms_delay_2_55,5658,46,maintaskTrials_2_l
5f7d2e104bfca86e4f58ef9a,Group_FJ,0,885d1eea80d979e945a735ff9ec5071e70109282de347645170e42232acd24dd,1704,FALSE,keypress,testresponse_s_F,647,['Shorter'],choice-response,Longer,5fbc5590be36f3ba328bd883,300ms_delay_2_92,4614,47,maintaskTrials_2_s
5f7d2e104bfca86e4f58ef9a,Group_FJ,0,885d1eea80d979e945a735ff9ec5071e70109282de347645170e42232acd24dd,1704,TRUE,keypress,testresponse_s_F,1011,['Shorter'],choice-response,Shorter,5fbc5590be36f3ba328bd883,300ms_delay_2_82,4884,48,maintaskTrials_2_s
5f7d2e104bfca86e4f58ef9a,Group_FJ,0,885d1eea80d979e945a735ff9ec5071e70109282de347645170e42232acd24dd,1704,TRUE,keypress,testresponse_l_J,312,['Longer'],choice-response,Longer,5fbc5590be36f3ba328bd883,300ms_delay_2_54,4128,49,maintaskTrials_2_l
5f7d2e104bfca86e4f58ef9a,Group_FJ,0,885d1eea80d979e945a735ff9ec5071e70109282de347645170e42232acd24dd,1704,TRUE,keypress,testresponse_s_F,203,['Shorter'],choice-response,Shorter,5fbc5590be36f3ba328bd883,300ms_delay_2_53,4038,50,maintaskTrials_2_s
5f7d2e104bfca86e4f58ef9a,Group_FJ,0,885d1eea80d979e945a735ff9ec5071e70109282de347645170e42232acd24dd,1704,TRUE,keypress,testresponse_l_J,128,['Longer'],choice-response,Longer,5fbc5590be36f3ba328bd883,300ms_delay_2_94,4163,51,maintaskTrials_2_l
5f7d2e104bfca86e4f58ef9a,Group_FJ,0,885d1eea80d979e945a735ff9ec5071e70109282de347645170e42232acd24dd,1704,TRUE,keypress,testresponse_s_F,306,['Shorter'],choice-response,Shorter,5fbc5590be36f3ba328bd883,300ms_delay_2_93,4788,52,maintaskTrials_2_s
5f7d2e104bfca86e4f58ef9a,Group_FJ,0,885d1eea80d979e945a735ff9ec5071e70109282de347645170e42232acd24dd,1704,TRUE,keypress,testresponse_l_J,448,['Longer'],choice-response,Longer,5fbc5590be36f3ba328bd883,300ms_delay_2_85,4397,53,maintaskTrials_2_l
5f7d2e104bfca86e4f58ef9a,Group_FJ,0,885d1eea80d979e945a735ff9ec5071e70109282de347645170e42232acd24dd,1704,TRUE,keypress,testresponse_s_F,669,['Shorter'],choice-response,Shorter,5fbc5590be36f3ba328bd883,300ms_delay_2_91,4911,54,maintaskTrials_2_s
5f7d2e104bfca86e4f58ef9a,Group_FJ,0,885d1eea80d979e945a735ff9ec5071e70109282de347645170e42232acd24dd,1704,TRUE,keypress,testresponse_s_F,824,['Shorter'],choice-response,Shorter,5fbc5590be36f3ba328bd883,300ms_delay_2_92,4791,55,maintaskTrials_2_s
5f7d2e104bfca86e4f58ef9a,Group_FJ,0,885d1eea80d979e945a735ff9ec5071e70109282de347645170e42232acd24dd,1704,TRUE,keypress,testresponse_l_J,1402,['Longer'],choice-response,Longer,5fbc5590be36f3ba328bd883,300ms_delay_2_85,5440,56,maintaskTrials_2_l
5f7d2e104bfca86e4f58ef9a,Group_FJ,0,885d1eea80d979e945a735ff9ec5071e70109282de347645170e42232acd24dd,1704,FALSE,keypress,testresponse_l_J,1635,['Longer'],choice-response,Shorter,5fbc5590be36f3ba328bd883,300ms_delay_2_94,5815,57,maintaskTrials_2_l
5f7d2e104bfca86e4f58ef9a,Group_FJ,0,885d1eea80d979e945a735ff9ec5071e70109282de347645170e42232acd24dd,1704,FALSE,keypress,testresponse_l_J,8361,['Longer'],choice-response,Shorter,5fbc5590be36f3ba328bd883,300ms_delay_2_86,12635,58,maintaskTrials_2_l
5f7d2e104bfca86e4f58ef9a,Group_FJ,0,885d1eea80d979e945a735ff9ec5071e70109282de347645170e42232acd24dd,1704,TRUE,keypress,testresponse_l_J,2940,['Longer'],choice-response,Longer,5fbc5590be36f3ba328bd883,300ms_delay_2_84,7525,59,maintaskTrials_2_l
5f7d2e104bfca86e4f58ef9a,Group_FJ,0,885d1eea80d979e945a735ff9ec5071e70109282de347645170e42232acd24dd,1704,TRUE,keypress,testresponse_s_F,1519,['Shorter'],choice-response,Shorter,5fbc5590be36f3ba328bd883,300ms_delay_2_83,5511,60,maintaskTrials_2_s
5f7d2e104bfca86e4f58ef9a,Group_FJ,0,885d1eea80d979e945a735ff9ec5071e70109282de347645170e42232acd24dd,1704,TRUE,keypress,testresponse_l_J,1299,['Longer'],choice-response,Longer,5fbc5590be36f3ba328bd883,300ms_delay_2_96,5336,61,maintaskTrials_2_l
5f7d2e104bfca86e4f58ef9a,Group_FJ,0,885d1eea80d979e945a735ff9ec5071e70109282de347645170e42232acd24dd,1704,TRUE,keypress,testresponse_s_F,158,['Shorter'],choice-response,Shorter,5fbc5590be36f3ba328bd883,300ms_delay_2_53,4151,62,maintaskTrials_2_s
5f7d2e104bfca86e4f58ef9a,Group_FJ,0,885d1eea80d979e945a735ff9ec5071e70109282de347645170e42232acd24dd,1704,FALSE,keypress,testresponse_s_F,765,['Shorter'],choice-response,Longer,5fbc5590be36f3ba328bd883,300ms_delay_2_52,4574,63,maintaskTrials_2_s
5f7d2e104bfca86e4f58ef9a,Group_FJ,0,885d1eea80d979e945a735ff9ec5071e70109282de347645170e42232acd24dd,1704,TRUE,keypress,testresponse_s_F,294,['Shorter'],choice-response,Shorter,5fbc5590be36f3ba328bd883,300ms_delay_2_82,4191,64,maintaskTrials_2_s
5f7d2e104bfca86e4f58ef9a,Group_FJ,0,885d1eea80d979e945a735ff9ec5071e70109282de347645170e42232acd24dd,1704,FALSE,keypress,testresponse_s_F,271,['Shorter'],choice-response,Longer,5fbc5590be36f3ba328bd883,300ms_delay_2_93,4422,65,maintaskTrials_2_s
5f7d2e104bfca86e4f58ef9a,Group_FJ,0,885d1eea80d979e945a735ff9ec5071e70109282de347645170e42232acd24dd,1704,FALSE,keypress,testresponse_l_J,452,['Longer'],choice-response,Shorter,5fbc5590be36f3ba328bd883,300ms_delay_2_56,4280,66,maintaskTrials_2_l
5f7d2e104bfca86e4f58ef9a,Group_FJ,0,885d1eea80d979e945a735ff9ec5071e70109282de347645170e42232acd24dd,1704,FALSE,keypress,testresponse_s_F,512,['Shorter'],choice-response,Longer,5fbc5590be36f3ba328bd883,300ms_delay_2_81,4550,67,maintaskTrials_2_s
5f7d2e104bfca86e4f58ef9a,Group_FJ,0,885d1eea80d979e945a735ff9ec5071e70109282de347645170e42232acd24dd,1704,FALSE,keypress,testresponse_l_J,603,['Longer'],choice-response,Shorter,5fbc5590be36f3ba328bd883,300ms_delay_2_95,5082,68,maintaskTrials_2_l
5f7d2e104bfca86e4f58ef9a,Group_FJ,0,885d1eea80d979e945a735ff9ec5071e70109282de347645170e42232acd24dd,1704,TRUE,keypress,testresponse_s_F,768,['Shorter'],choice-response,Shorter,5fbc5590be36f3ba328bd883,300ms_delay_2_91,4735,69,maintaskTrials_2_s
5f7d2e104bfca86e4f58ef9a,Group_FJ,0,885d1eea80d979e945a735ff9ec5071e70109282de347645170e42232acd24dd,1704,FALSE,keypress,testresponse_s_F,541,['Shorter'],choice-response,Longer,5fbc5590be36f3ba328bd883,300ms_delay_2_51,4442,70,maintaskTrials_2_s
5f7d2e104bfca86e4f58ef9a,Group_FJ,0,885d1eea80d979e945a735ff9ec5071e70109282de347645170e42232acd24dd,1704,FALSE,keypress,testresponse_l_J,817,['Longer'],choice-response,Shorter,5fbc5590be36f3ba328bd883,300ms_delay_2_55,4857,71,maintaskTrials_2_l
5f7d2e104bfca86e4f58ef9a,Group_FJ,0,885d1eea80d979e945a735ff9ec5071e70109282de347645170e42232acd24dd,1704,TRUE,keypress,testresponse_l_J,581,['Longer'],choice-response,Longer,5fbc5590be36f3ba328bd883,300ms_delay_2_54,5162,72,maintaskTrials_2_l
5f7d2e104bfca86e4f58ef9a,Group_FJ,0,885d1eea80d979e945a735ff9ec5071e70109282de347645170e42232acd24dd,1704,TRUE,keypress,testresponse_s_F,317,['Shorter'],choice-response,Shorter,5fbc5590be36f3ba328bd883,300ms_delay_2_91,4282,73,maintaskTrials_2_s
5f7d2e104bfca86e4f58ef9a,Group_FJ,0,885d1eea80d979e945a735ff9ec5071e70109282de347645170e42232acd24dd,1704,FALSE,keypress,testresponse_s_F,573,['Shorter'],choice-response,Longer,5fbc5590be36f3ba328bd883,300ms_delay_2_52,4732,74,maintaskTrials_2_s
5f7d2e104bfca86e4f58ef9a,Group_FJ,0,885d1eea80d979e945a735ff9ec5071e70109282de347645170e42232acd24dd,1704,FALSE,keypress,testresponse_l_J,397,['Longer'],choice-response,Shorter,5fbc5590be36f3ba328bd883,300ms_delay_2_54,4580,75,maintaskTrials_2_l
5f7d2e104bfca86e4f58ef9a,Group_FJ,0,885d1eea80d979e945a735ff9ec5071e70109282de347645170e42232acd24dd,1704,FALSE,keypress,testresponse_s_F,420,['Shorter'],choice-response,Longer,5fbc5590be36f3ba328bd883,300ms_delay_2_93,4987,76,maintaskTrials_2_s
5f7d2e104bfca86e4f58ef9a,Group_FJ,0,885d1eea80d979e945a735ff9ec5071e70109282de347645170e42232acd24dd,1704,TRUE,keypress,testresponse_s_F,393,['Shorter'],choice-response,Shorter,5fbc5590be36f3ba328bd883,300ms_delay_2_81,4263,77,maintaskTrials_2_s
5f7d2e104bfca86e4f58ef9a,Group_FJ,0,885d1eea80d979e945a735ff9ec5071e70109282de347645170e42232acd24dd,1704,TRUE,keypress,testresponse_l_J,211,['Longer'],choice-response,Longer,5fbc5590be36f3ba328bd883,300ms_delay_2_56,4061,78,maintaskTrials_2_l
5f7d2e104bfca86e4f58ef9a,Group_FJ,0,885d1eea80d979e945a735ff9ec5071e70109282de347645170e42232acd24dd,1704,FALSE,keypress,testresponse_l_J,373,['Longer'],choice-response,Shorter,5fbc5590be36f3ba328bd883,300ms_delay_2_95,4932,79,maintaskTrials_2_l
5f7d2e104bfca86e4f58ef9a,Group_FJ,0,885d1eea80d979e945a735ff9ec5071e70109282de347645170e42232acd24dd,1704,TRUE,keypress,testresponse_l_J,211,['Longer'],choice-response,Longer,5fbc5590be36f3ba328bd883,300ms_delay_2_85,4155,80,maintaskTrials_2_l
5f7d2e104bfca86e4f58ef9a,Group_FJ,0,885d1eea80d979e945a735ff9ec5071e70109282de347645170e42232acd24dd,1704,FALSE,keypress,testresponse_l_J,584,['Longer'],choice-response,Shorter,5fbc5590be36f3ba328bd883,300ms_delay_2_94,5093,81,maintaskTrials_2_l
5f7d2e104bfca86e4f58ef9a,Group_FJ,0,885d1eea80d979e945a735ff9ec5071e70109282de347645170e42232acd24dd,1704,FALSE,keypress,testresponse_l_J,590,['Longer'],choice-response,Shorter,5fbc5590be36f3ba328bd883,300ms_delay_2_86,4503,82,maintaskTrials_2_l
5f7d2e104bfca86e4f58ef9a,Group_FJ,0,885d1eea80d979e945a735ff9ec5071e70109282de347645170e42232acd24dd,1704,TRUE,keypress,testresponse_l_J,1000,['Longer'],choice-response,Longer,5fbc5590be36f3ba328bd883,300ms_delay_2_84,4897,83,maintaskTrials_2_l
5f7d2e104bfca86e4f58ef9a,Group_FJ,0,885d1eea80d979e945a735ff9ec5071e70109282de347645170e42232acd24dd,1704,TRUE,keypress,testresponse_s_F,321,['Shorter'],choice-response,Shorter,5fbc5590be36f3ba328bd883,300ms_delay_2_83,4672,84,maintaskTrials_2_s
5f7d2e104bfca86e4f58ef9a,Group_FJ,0,885d1eea80d979e945a735ff9ec5071e70109282de347645170e42232acd24dd,1704,FALSE,keypress,testresponse_s_F,595,['Shorter'],choice-response,Longer,5fbc5590be36f3ba328bd883,300ms_delay_2_82,4465,85,maintaskTrials_2_s
5f7d2e104bfca86e4f58ef9a,Group_FJ,0,885d1eea80d979e945a735ff9ec5071e70109282de347645170e42232acd24dd,1704,FALSE,keypress,testresponse_l_J,2160,['Longer'],choice-response,Shorter,5fbc5590be36f3ba328bd883,300ms_delay_2_96,6179,86,maintaskTrials_2_l
5f7d2e104bfca86e4f58ef9a,Group_FJ,0,885d1eea80d979e945a735ff9ec5071e70109282de347645170e42232acd24dd,1704,FALSE,keypress,testresponse_s_F,641,['Shorter'],choice-response,Longer,5fbc5590be36f3ba328bd883,300ms_delay_2_51,4492,87,maintaskTrials_2_s
5f7d2e104bfca86e4f58ef9a,Group_FJ,0,885d1eea80d979e945a735ff9ec5071e70109282de347645170e42232acd24dd,1704,TRUE,keypress,testresponse_l_J,1023,['Longer'],choice-response,Longer,5fbc5590be36f3ba328bd883,300ms_delay_2_55,4873,88,maintaskTrials_2_l
5f7d2e104bfca86e4f58ef9a,Group_FJ,0,885d1eea80d979e945a735ff9ec5071e70109282de347645170e42232acd24dd,1704,TRUE,keypress,testresponse_s_F,738,['Shorter'],choice-response,Shorter,5fbc5590be36f3ba328bd883,300ms_delay_2_92,5294,89,maintaskTrials_2_s
5f7d2e104bfca86e4f58ef9a,Group_FJ,0,885d1eea80d979e945a735ff9ec5071e70109282de347645170e42232acd24dd,1704,TRUE,keypress,testresponse_s_F,351,['Shorter'],choice-response,Shorter,5fbc5590be36f3ba328bd883,300ms_delay_2_53,4176,90,maintaskTrials_2_s
5f7d2e104bfca86e4f58ef9a,Group_FJ,0,885d1eea80d979e945a735ff9ec5071e70109282de347645170e42232acd24dd,1704,FALSE,keypress,testresponse_s_F,385,['Shorter'],choice-response,Longer,5fbc5590be36f3ba328bd883,300ms_delay_2_92,4360,91,maintaskTrials_2_s
5f7d2e104bfca86e4f58ef9a,Group_FJ,0,885d1eea80d979e945a735ff9ec5071e70109282de347645170e42232acd24dd,1704,TRUE,keypress,testresponse_s_F,623,['Shorter'],choice-response,Shorter,5fbc5590be36f3ba328bd883,300ms_delay_2_82,4502,92,maintaskTrials_2_s
5f7d2e104bfca86e4f58ef9a,Group_FJ,0,885d1eea80d979e945a735ff9ec5071e70109282de347645170e42232acd24dd,1704,TRUE,keypress,testresponse_l_J,1152,['Longer'],choice-response,Longer,5fbc5590be36f3ba328bd883,300ms_delay_2_84,5063,93,maintaskTrials_2_l
5f7d2e104bfca86e4f58ef9a,Group_FJ,0,885d1eea80d979e945a735ff9ec5071e70109282de347645170e42232acd24dd,1704,FALSE,keypress,testresponse_l_J,1628,['Longer'],choice-response,Shorter,5fbc5590be36f3ba328bd883,300ms_delay_2_95,5601,94,maintaskTrials_2_l
5f7d2e104bfca86e4f58ef9a,Group_FJ,0,885d1eea80d979e945a735ff9ec5071e70109282de347645170e42232acd24dd,1704,TRUE,keypress,testresponse_l_J,1247,['Longer'],choice-response,Longer,5fbc5590be36f3ba328bd883,300ms_delay_2_85,5725,95,maintaskTrials_2_l
5f7d2e104bfca86e4f58ef9a,Group_FJ,0,885d1eea80d979e945a735ff9ec5071e70109282de347645170e42232acd24dd,1704,FALSE,keypress,testresponse_l_J,1344,['Longer'],choice-response,Shorter,5fbc5590be36f3ba328bd883,300ms_delay_2_86,5288,96,maintaskTrials_2_l
5f7d2e104bfca86e4f58ef9a,Group_FJ,0,885d1eea80d979e945a735ff9ec5071e70109282de347645170e42232acd24dd,1704,TRUE,keypress,testresponse_l_J,643,['Longer'],choice-response,Longer,5fbc5590be36f3ba328bd883,300ms_delay_2_56,4763,97,maintaskTrials_2_l
5f7d2e104bfca86e4f58ef9a,Group_FJ,0,885d1eea80d979e945a735ff9ec5071e70109282de347645170e42232acd24dd,1704,FALSE,keypress,testresponse_l_J,405,['Longer'],choice-response,Shorter,5fbc5590be36f3ba328bd883,300ms_delay_2_94,4400,98,maintaskTrials_2_l
5f7d2e104bfca86e4f58ef9a,Group_FJ,0,885d1eea80d979e945a735ff9ec5071e70109282de347645170e42232acd24dd,1704,TRUE,keypress,testresponse_s_F,511,['Shorter'],choice-response,Shorter,5fbc5590be36f3ba328bd883,300ms_delay_2_53,4422,99,maintaskTrials_2_s
5f7d2e104bfca86e4f58ef9a,Group_FJ,0,885d1eea80d979e945a735ff9ec5071e70109282de347645170e42232acd24dd,1704,FALSE,keypress,testresponse_s_F,502,['Shorter'],choice-response,Longer,5fbc5590be36f3ba328bd883,300ms_delay_2_52,4504,100,maintaskTrials_2_s
5f7d2e104bfca86e4f58ef9a,Group_FJ,0,885d1eea80d979e945a735ff9ec5071e70109282de347645170e42232acd24dd,1704,FALSE,keypress,testresponse_s_F,2308,['Shorter'],choice-response,Longer,5fbc5590be36f3ba328bd883,300ms_delay_2_91,6321,101,maintaskTrials_2_s
5f7d2e104bfca86e4f58ef9a,Group_FJ,0,885d1eea80d979e945a735ff9ec5071e70109282de347645170e42232acd24dd,1704,TRUE,keypress,testresponse_s_F,894,['Shorter'],choice-response,Shorter,5fbc5590be36f3ba328bd883,300ms_delay_2_51,5621,102,maintaskTrials_2_s
5f7d2e104bfca86e4f58ef9a,Group_FJ,0,885d1eea80d979e945a735ff9ec5071e70109282de347645170e42232acd24dd,1704,FALSE,keypress,testresponse_l_J,605,['Longer'],choice-response,Shorter,5fbc5590be36f3ba328bd883,300ms_delay_2_96,4630,103,maintaskTrials_2_l
5f7d2e104bfca86e4f58ef9a,Group_FJ,0,885d1eea80d979e945a735ff9ec5071e70109282de347645170e42232acd24dd,1704,FALSE,keypress,testresponse_s_F,560,['Shorter'],choice-response,Longer,5fbc5590be36f3ba328bd883,300ms_delay_2_81,4689,104,maintaskTrials_2_s
5f7d2e104bfca86e4f58ef9a,Group_FJ,0,885d1eea80d979e945a735ff9ec5071e70109282de347645170e42232acd24dd,1704,TRUE,keypress,testresponse_s_F,539,['Shorter'],choice-response,Shorter,5fbc5590be36f3ba328bd883,300ms_delay_2_83,4973,105,maintaskTrials_2_s
5f7d2e104bfca86e4f58ef9a,Group_FJ,0,885d1eea80d979e945a735ff9ec5071e70109282de347645170e42232acd24dd,1704,FALSE,keypress,testresponse_s_F,1957,['Shorter'],choice-response,Longer,5fbc5590be36f3ba328bd883,300ms_delay_2_93,6701,106,maintaskTrials_2_s
5f7d2e104bfca86e4f58ef9a,Group_FJ,0,885d1eea80d979e945a735ff9ec5071e70109282de347645170e42232acd24dd,1704,FALSE,keypress,testresponse_l_J,791,['Longer'],choice-response,Shorter,5fbc5590be36f3ba328bd883,300ms_delay_2_55,4672,107,maintaskTrials_2_l
5f7d2e104bfca86e4f58ef9a,Group_FJ,0,885d1eea80d979e945a735ff9ec5071e70109282de347645170e42232acd24dd,1704,FALSE,keypress,testresponse_l_J,2579,['Longer'],choice-response,Shorter,5fbc5590be36f3ba328bd883,300ms_delay_2_54,6375,108,maintaskTrials_2_l
5f7d2e104bfca86e4f58ef9a,Group_FJ,0,885d1eea80d979e945a735ff9ec5071e70109282de347645170e42232acd24dd,1704,FALSE,keypress,testresponse_s_F,590,['Shorter'],choice-response,Longer,5fbc5590be36f3ba328bd883,300ms_delay_2_83,4493,109,maintaskTrials_2_s
5f7d2e104bfca86e4f58ef9a,Group_FJ,0,885d1eea80d979e945a735ff9ec5071e70109282de347645170e42232acd24dd,1704,TRUE,keypress,testresponse_s_F,252,['Shorter'],choice-response,Shorter,5fbc5590be36f3ba328bd883,300ms_delay_2_82,4134,110,maintaskTrials_2_s
5f7d2e104bfca86e4f58ef9a,Group_FJ,0,885d1eea80d979e945a735ff9ec5071e70109282de347645170e42232acd24dd,1704,TRUE,keypress,testresponse_l_J,380,['Longer'],choice-response,Longer,5fbc5590be36f3ba328bd883,300ms_delay_2_84,4306,111,maintaskTrials_2_l
5f7d2e104bfca86e4f58ef9a,Group_FJ,0,885d1eea80d979e945a735ff9ec5071e70109282de347645170e42232acd24dd,1704,TRUE,keypress,testresponse_s_F,370,['Shorter'],choice-response,Shorter,5fbc5590be36f3ba328bd883,300ms_delay_2_81,4251,112,maintaskTrials_2_s
5f7d2e104bfca86e4f58ef9a,Group_FJ,0,885d1eea80d979e945a735ff9ec5071e70109282de347645170e42232acd24dd,1704,TRUE,keypress,testresponse_l_J,592,['Longer'],choice-response,Longer,5fbc5590be36f3ba328bd883,300ms_delay_2_86,4559,113,maintaskTrials_2_l
5f7d2e104bfca86e4f58ef9a,Group_FJ,0,885d1eea80d979e945a735ff9ec5071e70109282de347645170e42232acd24dd,1704,TRUE,keypress,testresponse_l_J,538,['Longer'],choice-response,Longer,5fbc5590be36f3ba328bd883,300ms_delay_2_94,4551,114,maintaskTrials_2_l
5f7d2e104bfca86e4f58ef9a,Group_FJ,0,885d1eea80d979e945a735ff9ec5071e70109282de347645170e42232acd24dd,1704,TRUE,keypress,testresponse_s_F,525,['Shorter'],choice-response,Shorter,5fbc5590be36f3ba328bd883,300ms_delay_2_91,4491,115,maintaskTrials_2_s
5f7d2e104bfca86e4f58ef9a,Group_FJ,0,885d1eea80d979e945a735ff9ec5071e70109282de347645170e42232acd24dd,1704,TRUE,keypress,testresponse_l_J,741,['Longer'],choice-response,Longer,5fbc5590be36f3ba328bd883,300ms_delay_2_55,5102,116,maintaskTrials_2_l
5f7d2e104bfca86e4f58ef9a,Group_FJ,0,885d1eea80d979e945a735ff9ec5071e70109282de347645170e42232acd24dd,1704,FALSE,keypress,testresponse_l_J,624,['Longer'],choice-response,Shorter,5fbc5590be36f3ba328bd883,300ms_delay_2_54,4478,117,maintaskTrials_2_l
5f7d2e104bfca86e4f58ef9a,Group_FJ,0,885d1eea80d979e945a735ff9ec5071e70109282de347645170e42232acd24dd,1704,FALSE,keypress,testresponse_s_F,559,['Shorter'],choice-response,Longer,5fbc5590be36f3ba328bd883,300ms_delay_2_51,4688,118,maintaskTrials_2_s
5f7d2e104bfca86e4f58ef9a,Group_FJ,0,885d1eea80d979e945a735ff9ec5071e70109282de347645170e42232acd24dd,1704,TRUE,keypress,testresponse_s_F,1998,['Shorter'],choice-response,Shorter,5fbc5590be36f3ba328bd883,300ms_delay_2_92,5990,119,maintaskTrials_2_s
5f7d2e104bfca86e4f58ef9a,Group_FJ,0,885d1eea80d979e945a735ff9ec5071e70109282de347645170e42232acd24dd,1704,TRUE,keypress,testresponse_l_J,5910,['Longer'],choice-response,Longer,5fbc5590be36f3ba328bd883,300ms_delay_2_95,9908,120,maintaskTrials_2_l
5f7d2e104bfca86e4f58ef9a,Group_FJ,0,885d1eea80d979e945a735ff9ec5071e70109282de347645170e42232acd24dd,1704,FALSE,keypress,testresponse_l_J,378,['Longer'],choice-response,Shorter,5fbc5590be36f3ba328bd883,300ms_delay_2_85,4369,121,maintaskTrials_2_l
5f7d2e104bfca86e4f58ef9a,Group_FJ,0,885d1eea80d979e945a735ff9ec5071e70109282de347645170e42232acd24dd,1704,FALSE,keypress,testresponse_s_F,411,['Shorter'],choice-response,Longer,5fbc5590be36f3ba328bd883,300ms_delay_2_93,4612,122,maintaskTrials_2_s
5f7d2e104bfca86e4f58ef9a,Group_FJ,0,885d1eea80d979e945a735ff9ec5071e70109282de347645170e42232acd24dd,1704,TRUE,keypress,testresponse_s_F,672,['Shorter'],choice-response,Shorter,5fbc5590be36f3ba328bd883,300ms_delay_2_53,4502,123,maintaskTrials_2_s
5f7d2e104bfca86e4f58ef9a,Group_FJ,0,885d1eea80d979e945a735ff9ec5071e70109282de347645170e42232acd24dd,1704,FALSE,keypress,testresponse_l_J,5434,['Longer'],choice-response,Shorter,5fbc5590be36f3ba328bd883,300ms_delay_2_56,9433,124,maintaskTrials_2_l
5f7d2e104bfca86e4f58ef9a,Group_FJ,0,885d1eea80d979e945a735ff9ec5071e70109282de347645170e42232acd24dd,1704,FALSE,keypress,testresponse_l_J,2393,['Longer'],choice-response,Shorter,5fbc5590be36f3ba328bd883,300ms_delay_2_96,6568,125,maintaskTrials_2_l
5f7d2e104bfca86e4f58ef9a,Group_FJ,0,885d1eea80d979e945a735ff9ec5071e70109282de347645170e42232acd24dd,1704,FALSE,keypress,testresponse_s_F,509,['Shorter'],choice-response,Longer,5fbc5590be36f3ba328bd883,300ms_delay_2_52,4855,126,maintaskTrials_2_s
5f7d2e104bfca86e4f58ef9a,Group_FJ,0,885d1eea80d979e945a735ff9ec5071e70109282de347645170e42232acd24dd,1704,FALSE,keypress,testresponse_l_J,797,['Longer'],choice-response,Shorter,5fbc5590be36f3ba328bd883,300ms_delay_2_94,4949,127,maintaskTrials_2_l
5f7d2e104bfca86e4f58ef9a,Group_FJ,0,885d1eea80d979e945a735ff9ec5071e70109282de347645170e42232acd24dd,1704,TRUE,keypress,testresponse_l_J,652,['Longer'],choice-response,Longer,5fbc5590be36f3ba328bd883,300ms_delay_2_85,4665,128,maintaskTrials_2_l
5f7d2e104bfca86e4f58ef9a,Group_FJ,0,885d1eea80d979e945a735ff9ec5071e70109282de347645170e42232acd24dd,1704,TRUE,keypress,testresponse_s_F,629,['Shorter'],choice-response,Shorter,5fbc5590be36f3ba328bd883,300ms_delay_2_92,4619,129,maintaskTrials_2_s
5f7d2e104bfca86e4f58ef9a,Group_FJ,0,885d1eea80d979e945a735ff9ec5071e70109282de347645170e42232acd24dd,1704,TRUE,keypress,testresponse_s_F,513,['Shorter'],choice-response,Shorter,5fbc5590be36f3ba328bd883,300ms_delay_2_52,4304,130,maintaskTrials_2_s
5f7d2e104bfca86e4f58ef9a,Group_FJ,0,885d1eea80d979e945a735ff9ec5071e70109282de347645170e42232acd24dd,1704,TRUE,keypress,testresponse_s_F,668,['Shorter'],choice-response,Shorter,5fbc5590be36f3ba328bd883,300ms_delay_2_91,4801,131,maintaskTrials_2_s
5f7d2e104bfca86e4f58ef9a,Group_FJ,0,885d1eea80d979e945a735ff9ec5071e70109282de347645170e42232acd24dd,1704,TRUE,keypress,testresponse_l_J,560,['Longer'],choice-response,Longer,5fbc5590be36f3ba328bd883,300ms_delay_2_96,4806,132,maintaskTrials_2_l
5f7d2e104bfca86e4f58ef9a,Group_FJ,0,885d1eea80d979e945a735ff9ec5071e70109282de347645170e42232acd24dd,1704,TRUE,keypress,testresponse_s_F,489,['Shorter'],choice-response,Shorter,5fbc5590be36f3ba328bd883,300ms_delay_2_81,4371,133,maintaskTrials_2_s
5f7d2e104bfca86e4f58ef9a,Group_FJ,0,885d1eea80d979e945a735ff9ec5071e70109282de347645170e42232acd24dd,1704,TRUE,keypress,testresponse_s_F,798,['Shorter'],choice-response,Shorter,5fbc5590be36f3ba328bd883,300ms_delay_2_53,4712,134,maintaskTrials_2_s
5f7d2e104bfca86e4f58ef9a,Group_FJ,0,885d1eea80d979e945a735ff9ec5071e70109282de347645170e42232acd24dd,1704,TRUE,keypress,testresponse_l_J,440,['Longer'],choice-response,Longer,5fbc5590be36f3ba328bd883,300ms_delay_2_55,4305,135,maintaskTrials_2_l
5f7d2e104bfca86e4f58ef9a,Group_FJ,0,885d1eea80d979e945a735ff9ec5071e70109282de347645170e42232acd24dd,1704,FALSE,keypress,testresponse_l_J,112,['Longer'],choice-response,Shorter,5fbc5590be36f3ba328bd883,300ms_delay_2_86,4170,136,maintaskTrials_2_l
5f7d2e104bfca86e4f58ef9a,Group_FJ,0,885d1eea80d979e945a735ff9ec5071e70109282de347645170e42232acd24dd,1704,TRUE,keypress,testresponse_l_J,84,['Longer'],choice-response,Longer,5fbc5590be36f3ba328bd883,300ms_delay_2_56,4606,137,maintaskTrials_2_l
5f7d2e104bfca86e4f58ef9a,Group_FJ,0,885d1eea80d979e945a735ff9ec5071e70109282de347645170e42232acd24dd,1704,TRUE,keypress,testresponse_s_F,489,['Shorter'],choice-response,Shorter,5fbc5590be36f3ba328bd883,300ms_delay_2_51,4278,138,maintaskTrials_2_s
5f7d2e104bfca86e4f58ef9a,Group_FJ,0,885d1eea80d979e945a735ff9ec5071e70109282de347645170e42232acd24dd,1704,FALSE,keypress,testresponse_l_J,192,['Longer'],choice-response,Shorter,5fbc5590be36f3ba328bd883,300ms_delay_2_95,4344,139,maintaskTrials_2_l
5f7d2e104bfca86e4f58ef9a,Group_FJ,0,885d1eea80d979e945a735ff9ec5071e70109282de347645170e42232acd24dd,1704,TRUE,keypress,testresponse_s_F,249,['Shorter'],choice-response,Shorter,5fbc5590be36f3ba328bd883,300ms_delay_2_93,4246,140,maintaskTrials_2_s
5f7d2e104bfca86e4f58ef9a,Group_FJ,0,885d1eea80d979e945a735ff9ec5071e70109282de347645170e42232acd24dd,1704,TRUE,keypress,testresponse_s_F,181,['Shorter'],choice-response,Shorter,5fbc5590be36f3ba328bd883,300ms_delay_2_83,4085,141,maintaskTrials_2_s
5f7d2e104bfca86e4f58ef9a,Group_FJ,0,885d1eea80d979e945a735ff9ec5071e70109282de347645170e42232acd24dd,1704,FALSE,keypress,testresponse_l_J,79,['Longer'],choice-response,Shorter,5fbc5590be36f3ba328bd883,300ms_delay_2_84,4012,142,maintaskTrials_2_l
5f7d2e104bfca86e4f58ef9a,Group_FJ,0,885d1eea80d979e945a735ff9ec5071e70109282de347645170e42232acd24dd,1704,TRUE,keypress,testresponse_l_J,463,['Longer'],choice-response,Longer,5fbc5590be36f3ba328bd883,300ms_delay_2_54,4276,143,maintaskTrials_2_l
5f7d2e104bfca86e4f58ef9a,Group_FJ,0,885d1eea80d979e945a735ff9ec5071e70109282de347645170e42232acd24dd,1704,TRUE,keypress,testresponse_s_F,620,['Shorter'],choice-response,Shorter,5fbc5590be36f3ba328bd883,300ms_delay_2_82,5087,144,maintaskTrials_2_s
5f7d2e104bfca86e4f58ef9a,Group_FJ,0,885d1eea80d979e945a735ff9ec5071e70109282de347645170e42232acd24dd,1704,FALSE,keypress,testresponse_s_F,465,['Shorter'],choice-response,Longer,5fbc5590be36f3ba328bd883,300ms_delay_2_81,4353,145,maintaskTrials_2_s
5f7d2e104bfca86e4f58ef9a,Group_FJ,0,885d1eea80d979e945a735ff9ec5071e70109282de347645170e42232acd24dd,1704,FALSE,keypress,testresponse_l_J,503,['Longer'],choice-response,Shorter,5fbc5590be36f3ba328bd883,300ms_delay_2_96,4545,146,maintaskTrials_2_l
5f7d2e104bfca86e4f58ef9a,Group_FJ,0,885d1eea80d979e945a735ff9ec5071e70109282de347645170e42232acd24dd,1704,TRUE,keypress,testresponse_l_J,627,['Longer'],choice-response,Longer,5fbc5590be36f3ba328bd883,300ms_delay_2_94,4644,147,maintaskTrials_2_l
5f7d2e104bfca86e4f58ef9a,Group_FJ,0,885d1eea80d979e945a735ff9ec5071e70109282de347645170e42232acd24dd,1704,FALSE,keypress,testresponse_l_J,398,['Longer'],choice-response,Shorter,5fbc5590be36f3ba328bd883,300ms_delay_2_85,4595,148,maintaskTrials_2_l
5f7d2e104bfca86e4f58ef9a,Group_FJ,0,885d1eea80d979e945a735ff9ec5071e70109282de347645170e42232acd24dd,1704,FALSE,keypress,testresponse_s_F,196,['Shorter'],choice-response,Longer,5fbc5590be36f3ba328bd883,300ms_delay_2_52,4087,149,maintaskTrials_2_s
5f7d2e104bfca86e4f58ef9a,Group_FJ,0,885d1eea80d979e945a735ff9ec5071e70109282de347645170e42232acd24dd,1704,TRUE,keypress,testresponse_l_J,5361,['Longer'],choice-response,Longer,5fbc5590be36f3ba328bd883,300ms_delay_2_54,9236,150,maintaskTrials_2_l
5f7d2e104bfca86e4f58ef9a,Group_FJ,0,885d1eea80d979e945a735ff9ec5071e70109282de347645170e42232acd24dd,1704,FALSE,keypress,testresponse_l_J,393,['Longer'],choice-response,Shorter,5fbc5590be36f3ba328bd883,300ms_delay_2_86,4360,151,maintaskTrials_2_l
5f7d2e104bfca86e4f58ef9a,Group_FJ,0,885d1eea80d979e945a735ff9ec5071e70109282de347645170e42232acd24dd,1704,FALSE,keypress,testresponse_s_F,669,['Shorter'],choice-response,Longer,5fbc5590be36f3ba328bd883,300ms_delay_2_82,4636,152,maintaskTrials_2_s
5f7d2e104bfca86e4f58ef9a,Group_FJ,0,885d1eea80d979e945a735ff9ec5071e70109282de347645170e42232acd24dd,1704,TRUE,keypress,testresponse_s_F,489,['Shorter'],choice-response,Shorter,5fbc5590be36f3ba328bd883,300ms_delay_2_83,4401,153,maintaskTrials_2_s
5f7d2e104bfca86e4f58ef9a,Group_FJ,0,885d1eea80d979e945a735ff9ec5071e70109282de347645170e42232acd24dd,1704,TRUE,keypress,testresponse_l_J,381,['Longer'],choice-response,Longer,5fbc5590be36f3ba328bd883,300ms_delay_2_84,4305,154,maintaskTrials_2_l
5f7d2e104bfca86e4f58ef9a,Group_FJ,0,885d1eea80d979e945a735ff9ec5071e70109282de347645170e42232acd24dd,1704,TRUE,keypress,testresponse_s_F,1232,['Shorter'],choice-response,Shorter,5fbc5590be36f3ba328bd883,300ms_delay_2_91,5198,155,maintaskTrials_2_s
5f7d2e104bfca86e4f58ef9a,Group_FJ,0,885d1eea80d979e945a735ff9ec5071e70109282de347645170e42232acd24dd,1704,FALSE,keypress,testresponse_s_F,2469,['Shorter'],choice-response,Longer,5fbc5590be36f3ba328bd883,300ms_delay_2_51,6272,156,maintaskTrials_2_s
5f7d2e104bfca86e4f58ef9a,Group_FJ,0,885d1eea80d979e945a735ff9ec5071e70109282de347645170e42232acd24dd,1704,TRUE,keypress,testresponse_s_F,416,['Shorter'],choice-response,Shorter,5fbc5590be36f3ba328bd883,300ms_delay_2_92,4385,157,maintaskTrials_2_s
5f7d2e104bfca86e4f58ef9a,Group_FJ,0,885d1eea80d979e945a735ff9ec5071e70109282de347645170e42232acd24dd,1704,FALSE,keypress,testresponse_l_J,570,['Longer'],choice-response,Shorter,5fbc5590be36f3ba328bd883,300ms_delay_2_55,4405,158,maintaskTrials_2_l
5f7d2e104bfca86e4f58ef9a,Group_FJ,0,885d1eea80d979e945a735ff9ec5071e70109282de347645170e42232acd24dd,1704,TRUE,keypress,testresponse_s_F,93,['Shorter'],choice-response,Shorter,5fbc5590be36f3ba328bd883,300ms_delay_2_93,4593,159,maintaskTrials_2_s
5f7d2e104bfca86e4f58ef9a,Group_FJ,0,885d1eea80d979e945a735ff9ec5071e70109282de347645170e42232acd24dd,1704,FALSE,keypress,testresponse_l_J,776,['Longer'],choice-response,Shorter,5fbc5590be36f3ba328bd883,300ms_delay_2_95,4788,160,maintaskTrials_2_l
5f7d2e104bfca86e4f58ef9a,Group_FJ,0,885d1eea80d979e945a735ff9ec5071e70109282de347645170e42232acd24dd,1704,FALSE,keypress,testresponse_s_F,436,['Shorter'],choice-response,Longer,5fbc5590be36f3ba328bd883,300ms_delay_2_53,4242,161,maintaskTrials_2_s
5f7d2e104bfca86e4f58ef9a,Group_FJ,0,885d1eea80d979e945a735ff9ec5071e70109282de347645170e42232acd24dd,1704,FALSE,keypress,testresponse_l_J,374,['Longer'],choice-response,Shorter,5fbc5590be36f3ba328bd883,300ms_delay_2_56,4223,162,maintaskTrials_2_l
5f7d2e104bfca86e4f58ef9a,Group_FJ,0,885d1eea80d979e945a735ff9ec5071e70109282de347645170e42232acd24dd,1704,FALSE,keypress,testresponse_s_F,307,['Shorter'],choice-response,Longer,5fbc5590be36f3ba328bd883,300ms_delay_2_52,4095,163,maintaskTrials_2_s
5f7d2e104bfca86e4f58ef9a,Group_FJ,0,885d1eea80d979e945a735ff9ec5071e70109282de347645170e42232acd24dd,1704,FALSE,keypress,testresponse_l_J,368,['Longer'],choice-response,Shorter,5fbc5590be36f3ba328bd883,300ms_delay_2_54,4739,164,maintaskTrials_2_l
5f7d2e104bfca86e4f58ef9a,Group_FJ,0,885d1eea80d979e945a735ff9ec5071e70109282de347645170e42232acd24dd,1704,TRUE,keypress,testresponse_s_F,708,['Shorter'],choice-response,Shorter,5fbc5590be36f3ba328bd883,300ms_delay_2_83,4997,165,maintaskTrials_2_s
5f7d2e104bfca86e4f58ef9a,Group_FJ,0,885d1eea80d979e945a735ff9ec5071e70109282de347645170e42232acd24dd,1704,FALSE,keypress,testresponse_l_J,1579,['Longer'],choice-response,Shorter,5fbc5590be36f3ba328bd883,300ms_delay_2_86,5507,166,maintaskTrials_2_l
5f7d2e104bfca86e4f58ef9a,Group_FJ,0,885d1eea80d979e945a735ff9ec5071e70109282de347645170e42232acd24dd,1704,TRUE,keypress,testresponse_l_J,1115,['Longer'],choice-response,Longer,5fbc5590be36f3ba328bd883,300ms_delay_2_56,5049,167,maintaskTrials_2_l
5f7d2e104bfca86e4f58ef9a,Group_FJ,0,885d1eea80d979e945a735ff9ec5071e70109282de347645170e42232acd24dd,1704,TRUE,keypress,testresponse_s_F,803,['Shorter'],choice-response,Shorter,5fbc5590be36f3ba328bd883,300ms_delay_2_53,4677,168,maintaskTrials_2_s
5f7d2e104bfca86e4f58ef9a,Group_FJ,0,885d1eea80d979e945a735ff9ec5071e70109282de347645170e42232acd24dd,1704,FALSE,keypress,testresponse_l_J,195,['Longer'],choice-response,Shorter,5fbc5590be36f3ba328bd883,300ms_delay_2_84,4116,169,maintaskTrials_2_l
5f7d2e104bfca86e4f58ef9a,Group_FJ,0,885d1eea80d979e945a735ff9ec5071e70109282de347645170e42232acd24dd,1704,FALSE,keypress,testresponse_s_F,1013,['Shorter'],choice-response,Longer,5fbc5590be36f3ba328bd883,300ms_delay_2_81,5259,170,maintaskTrials_2_s
5f7d2e104bfca86e4f58ef9a,Group_FJ,0,885d1eea80d979e945a735ff9ec5071e70109282de347645170e42232acd24dd,1704,FALSE,keypress,testresponse_l_J,311,['Longer'],choice-response,Shorter,5fbc5590be36f3ba328bd883,300ms_delay_2_94,4768,171,maintaskTrials_2_l
5f7d2e104bfca86e4f58ef9a,Group_FJ,0,885d1eea80d979e945a735ff9ec5071e70109282de347645170e42232acd24dd,1704,TRUE,keypress,testresponse_l_J,3647,['Longer'],choice-response,Longer,5fbc5590be36f3ba328bd883,300ms_delay_2_85,7752,172,maintaskTrials_2_l
5f7d2e104bfca86e4f58ef9a,Group_FJ,0,885d1eea80d979e945a735ff9ec5071e70109282de347645170e42232acd24dd,1704,FALSE,keypress,testresponse_l_J,1519,['Longer'],choice-response,Shorter,5fbc5590be36f3ba328bd883,300ms_delay_2_96,5533,173,maintaskTrials_2_l
5f7d2e104bfca86e4f58ef9a,Group_FJ,0,885d1eea80d979e945a735ff9ec5071e70109282de347645170e42232acd24dd,1704,FALSE,keypress,testresponse_s_F,1224,['Shorter'],choice-response,Longer,5fbc5590be36f3ba328bd883,300ms_delay_2_91,5224,174,maintaskTrials_2_s
5f7d2e104bfca86e4f58ef9a,Group_FJ,0,885d1eea80d979e945a735ff9ec5071e70109282de347645170e42232acd24dd,1704,TRUE,keypress,testresponse_s_F,443,['Shorter'],choice-response,Shorter,5fbc5590be36f3ba328bd883,300ms_delay_2_51,4731,175,maintaskTrials_2_s
5f7d2e104bfca86e4f58ef9a,Group_FJ,0,885d1eea80d979e945a735ff9ec5071e70109282de347645170e42232acd24dd,1704,FALSE,keypress,testresponse_s_F,1331,['Shorter'],choice-response,Longer,5fbc5590be36f3ba328bd883,300ms_delay_2_92,5320,176,maintaskTrials_2_s
5f7d2e104bfca86e4f58ef9a,Group_FJ,0,885d1eea80d979e945a735ff9ec5071e70109282de347645170e42232acd24dd,1704,FALSE,keypress,testresponse_l_J,880,['Longer'],choice-response,Shorter,5fbc5590be36f3ba328bd883,300ms_delay_2_95,4865,177,maintaskTrials_2_l
5f7d2e104bfca86e4f58ef9a,Group_FJ,0,885d1eea80d979e945a735ff9ec5071e70109282de347645170e42232acd24dd,1704,TRUE,keypress,testresponse_l_J,481,['Longer'],choice-response,Longer,5fbc5590be36f3ba328bd883,300ms_delay_2_55,4355,178,maintaskTrials_2_l
5f7d2e104bfca86e4f58ef9a,Group_FJ,0,885d1eea80d979e945a735ff9ec5071e70109282de347645170e42232acd24dd,1704,TRUE,keypress,testresponse_s_F,734,['Shorter'],choice-response,Shorter,5fbc5590be36f3ba328bd883,300ms_delay_2_82,5141,179,maintaskTrials_2_s
5f7d2e104bfca86e4f58ef9a,Group_FJ,0,885d1eea80d979e945a735ff9ec5071e70109282de347645170e42232acd24dd,1704,FALSE,keypress,testresponse_s_F,490,['Shorter'],choice-response,Longer,5fbc5590be36f3ba328bd883,300ms_delay_2_93,4495,180,maintaskTrials_2_s
5f7d2e104bfca86e4f58ef9a,Group_FJ,0,885d1eea80d979e945a735ff9ec5071e70109282de347645170e42232acd24dd,1704,FALSE,keypress,testresponse_l_J,443,['Longer'],choice-response,Shorter,5fbc5590be36f3ba328bd883,300ms_delay_2_85,4397,181,maintaskTrials_2_l
5f7d2e104bfca86e4f58ef9a,Group_FJ,0,885d1eea80d979e945a735ff9ec5071e70109282de347645170e42232acd24dd,1704,FALSE,keypress,testresponse_s_F,627,['Shorter'],choice-response,Longer,5fbc5590be36f3ba328bd883,300ms_delay_2_91,5309,182,maintaskTrials_2_s
5f7d2e104bfca86e4f58ef9a,Group_FJ,0,885d1eea80d979e945a735ff9ec5071e70109282de347645170e42232acd24dd,1704,TRUE,keypress,testresponse_s_F,411,['Shorter'],choice-response,Shorter,5fbc5590be36f3ba328bd883,300ms_delay_2_83,4767,183,maintaskTrials_2_s
5f7d2e104bfca86e4f58ef9a,Group_FJ,0,885d1eea80d979e945a735ff9ec5071e70109282de347645170e42232acd24dd,1704,FALSE,keypress,testresponse_s_F,2533,['Shorter'],choice-response,Longer,5fbc5590be36f3ba328bd883,300ms_delay_2_81,7035,184,maintaskTrials_2_s
5f7d2e104bfca86e4f58ef9a,Group_FJ,0,885d1eea80d979e945a735ff9ec5071e70109282de347645170e42232acd24dd,1704,FALSE,keypress,testresponse_l_J,535,['Longer'],choice-response,Shorter,5fbc5590be36f3ba328bd883,300ms_delay_2_54,4347,185,maintaskTrials_2_l
5f7d2e104bfca86e4f58ef9a,Group_FJ,0,885d1eea80d979e945a735ff9ec5071e70109282de347645170e42232acd24dd,1704,FALSE,keypress,testresponse_s_F,242,['Shorter'],choice-response,Longer,5fbc5590be36f3ba328bd883,300ms_delay_2_92,4231,186,maintaskTrials_2_s
5f7d2e104bfca86e4f58ef9a,Group_FJ,0,885d1eea80d979e945a735ff9ec5071e70109282de347645170e42232acd24dd,1704,TRUE,keypress,testresponse_l_J,2981,['Longer'],choice-response,Longer,5fbc5590be36f3ba328bd883,300ms_delay_2_55,6824,187,maintaskTrials_2_l
5f7d2e104bfca86e4f58ef9a,Group_FJ,0,885d1eea80d979e945a735ff9ec5071e70109282de347645170e42232acd24dd,1704,FALSE,keypress,testresponse_l_J,3406,['Longer'],choice-response,Shorter,5fbc5590be36f3ba328bd883,300ms_delay_2_94,7510,188,maintaskTrials_2_l
5f7d2e104bfca86e4f58ef9a,Group_FJ,0,885d1eea80d979e945a735ff9ec5071e70109282de347645170e42232acd24dd,1704,TRUE,keypress,testresponse_l_J,4472,['Longer'],choice-response,Longer,5fbc5590be36f3ba328bd883,300ms_delay_2_56,8302,189,maintaskTrials_2_l
5f7d2e104bfca86e4f58ef9a,Group_FJ,0,885d1eea80d979e945a735ff9ec5071e70109282de347645170e42232acd24dd,1704,TRUE,keypress,testresponse_l_J,12619,['Longer'],choice-response,Longer,5fbc5590be36f3ba328bd883,300ms_delay_2_96,16657,190,maintaskTrials_2_l
5f7d2e104bfca86e4f58ef9a,Group_FJ,0,885d1eea80d979e945a735ff9ec5071e70109282de347645170e42232acd24dd,1704,TRUE,keypress,testresponse_s_F,1020,['Shorter'],choice-response,Shorter,5fbc5590be36f3ba328bd883,300ms_delay_2_53,4835,191,maintaskTrials_2_s
5f7d2e104bfca86e4f58ef9a,Group_FJ,0,885d1eea80d979e945a735ff9ec5071e70109282de347645170e42232acd24dd,1704,TRUE,keypress,testresponse_l_J,632,['Longer'],choice-response,Longer,5fbc5590be36f3ba328bd883,300ms_delay_2_95,4637,192,maintaskTrials_2_l
5f7d2e104bfca86e4f58ef9a,Group_FJ,0,885d1eea80d979e945a735ff9ec5071e70109282de347645170e42232acd24dd,1704,FALSE,keypress,testresponse_l_J,868,['Longer'],choice-response,Shorter,5fbc5590be36f3ba328bd883,300ms_delay_2_84,5255,193,maintaskTrials_2_l
5f7d2e104bfca86e4f58ef9a,Group_FJ,0,885d1eea80d979e945a735ff9ec5071e70109282de347645170e42232acd24dd,1704,TRUE,click,testresponse_s_F,7057,['Shorter'],choice-response,Shorter,5fbc5590be36f3ba328bd883,300ms_delay_2_93,11052,194,maintaskTrials_2_s
5f7d2e104bfca86e4f58ef9a,Group_FJ,0,885d1eea80d979e945a735ff9ec5071e70109282de347645170e42232acd24dd,1704,FALSE,keypress,testresponse_s_F,1801,['Shorter'],choice-response,Longer,5fbc5590be36f3ba328bd883,300ms_delay_2_82,5758,195,maintaskTrials_2_s
5f7d2e104bfca86e4f58ef9a,Group_FJ,0,885d1eea80d979e945a735ff9ec5071e70109282de347645170e42232acd24dd,1704,TRUE,keypress,testresponse_l_J,12046,['Longer'],choice-response,Longer,5fbc5590be36f3ba328bd883,300ms_delay_2_86,15968,196,maintaskTrials_2_l
5f7d2e104bfca86e4f58ef9a,Group_FJ,0,885d1eea80d979e945a735ff9ec5071e70109282de347645170e42232acd24dd,1704,TRUE,keypress,testresponse_s_F,3043,['Shorter'],choice-response,Shorter,5fbc5590be36f3ba328bd883,300ms_delay_2_52,7434,197,maintaskTrials_2_s
5f7d2e104bfca86e4f58ef9a,Group_FJ,0,885d1eea80d979e945a735ff9ec5071e70109282de347645170e42232acd24dd,1704,FALSE,keypress,testresponse_s_F,1930,['Shorter'],choice-response,Longer,5fbc5590be36f3ba328bd883,300ms_delay_2_51,6199,198,maintaskTrials_2_s
5f7d2e104bfca86e4f58ef9a,Group_FJ,0,885d1eea80d979e945a735ff9ec5071e70109282de347645170e42232acd24dd,1704,FALSE,keypress,testresponse_l_J,1114,['Longer'],choice-response,Shorter,5fbc5590be36f3ba328bd883,300ms_delay_2_85,5032,199,maintaskTrials_2_l
5f7d2e104bfca86e4f58ef9a,Group_FJ,0,885d1eea80d979e945a735ff9ec5071e70109282de347645170e42232acd24dd,1704,FALSE,keypress,testresponse_s_F,725,['Shorter'],choice-response,Longer,5fbc5590be36f3ba328bd883,300ms_delay_2_83,5226,200,maintaskTrials_2_s
5f7d2e104bfca86e4f58ef9a,Group_FJ,0,885d1eea80d979e945a735ff9ec5071e70109282de347645170e42232acd24dd,1704,FALSE,keypress,testresponse_l_J,1452,['Longer'],choice-response,Shorter,5fbc5590be36f3ba328bd883,300ms_delay_2_95,5471,201,maintaskTrials_2_l
5f7d2e104bfca86e4f58ef9a,Group_FJ,0,885d1eea80d979e945a735ff9ec5071e70109282de347645170e42232acd24dd,1704,FALSE,keypress,testresponse_s_F,2022,['Shorter'],choice-response,Longer,5fbc5590be36f3ba328bd883,300ms_delay_2_82,6337,202,maintaskTrials_2_s
5f7d2e104bfca86e4f58ef9a,Group_FJ,0,885d1eea80d979e945a735ff9ec5071e70109282de347645170e42232acd24dd,1704,FALSE,keypress,testresponse_l_J,1521,['Longer'],choice-response,Shorter,5fbc5590be36f3ba328bd883,300ms_delay_2_55,5358,203,maintaskTrials_2_l
5f7d2e104bfca86e4f58ef9a,Group_FJ,0,885d1eea80d979e945a735ff9ec5071e70109282de347645170e42232acd24dd,1704,TRUE,keypress,testresponse_l_J,674,['Longer'],choice-response,Longer,5fbc5590be36f3ba328bd883,300ms_delay_2_86,4639,204,maintaskTrials_2_l
5f7d2e104bfca86e4f58ef9a,Group_FJ,0,885d1eea80d979e945a735ff9ec5071e70109282de347645170e42232acd24dd,1704,FALSE,keypress,testresponse_l_J,330,['Longer'],choice-response,Shorter,5fbc5590be36f3ba328bd883,300ms_delay_2_54,4140,205,maintaskTrials_2_l
5f7d2e104bfca86e4f58ef9a,Group_FJ,0,885d1eea80d979e945a735ff9ec5071e70109282de347645170e42232acd24dd,1704,FALSE,keypress,testresponse_s_F,335,['Shorter'],choice-response,Longer,5fbc5590be36f3ba328bd883,300ms_delay_2_92,4325,206,maintaskTrials_2_s
5f7d2e104bfca86e4f58ef9a,Group_FJ,0,885d1eea80d979e945a735ff9ec5071e70109282de347645170e42232acd24dd,1704,FALSE,keypress,testresponse_s_F,1015,['Shorter'],choice-response,Longer,5fbc5590be36f3ba328bd883,300ms_delay_2_53,5198,207,maintaskTrials_2_s
5f7d2e104bfca86e4f58ef9a,Group_FJ,0,885d1eea80d979e945a735ff9ec5071e70109282de347645170e42232acd24dd,1704,FALSE,keypress,testresponse_l_J,2046,['Longer'],choice-response,Shorter,5fbc5590be36f3ba328bd883,300ms_delay_2_56,5875,208,maintaskTrials_2_l
5f7d2e104bfca86e4f58ef9a,Group_FJ,0,885d1eea80d979e945a735ff9ec5071e70109282de347645170e42232acd24dd,1704,TRUE,keypress,testresponse_l_J,2501,['Longer'],choice-response,Longer,5fbc5590be36f3ba328bd883,300ms_delay_2_94,6489,209,maintaskTrials_2_l
5f7d2e104bfca86e4f58ef9a,Group_FJ,0,885d1eea80d979e945a735ff9ec5071e70109282de347645170e42232acd24dd,1704,TRUE,keypress,testresponse_s_F,1442,['Shorter'],choice-response,Shorter,5fbc5590be36f3ba328bd883,300ms_delay_2_81,5334,210,maintaskTrials_2_s
5f7d2e104bfca86e4f58ef9a,Group_FJ,0,885d1eea80d979e945a735ff9ec5071e70109282de347645170e42232acd24dd,1704,FALSE,keypress,testresponse_s_F,1399,['Shorter'],choice-response,Longer,5fbc5590be36f3ba328bd883,300ms_delay_2_52,5225,211,maintaskTrials_2_s
5f7d2e104bfca86e4f58ef9a,Group_FJ,0,885d1eea80d979e945a735ff9ec5071e70109282de347645170e42232acd24dd,1704,FALSE,keypress,testresponse_s_F,2541,['Shorter'],choice-response,Longer,5fbc5590be36f3ba328bd883,300ms_delay_2_93,6585,212,maintaskTrials_2_s
5f7d2e104bfca86e4f58ef9a,Group_FJ,0,885d1eea80d979e945a735ff9ec5071e70109282de347645170e42232acd24dd,1704,TRUE,keypress,testresponse_s_F,1845,['Shorter'],choice-response,Shorter,5fbc5590be36f3ba328bd883,300ms_delay_2_51,5630,213,maintaskTrials_2_s
5f7d2e104bfca86e4f58ef9a,Group_FJ,0,885d1eea80d979e945a735ff9ec5071e70109282de347645170e42232acd24dd,1704,FALSE,keypress,testresponse_s_F,1184,['Shorter'],choice-response,Longer,5fbc5590be36f3ba328bd883,300ms_delay_2_91,5156,214,maintaskTrials_2_s
5f7d2e104bfca86e4f58ef9a,Group_FJ,0,885d1eea80d979e945a735ff9ec5071e70109282de347645170e42232acd24dd,1704,FALSE,keypress,testresponse_l_J,487,['Longer'],choice-response,Shorter,5fbc5590be36f3ba328bd883,300ms_delay_2_84,5110,215,maintaskTrials_2_l
5f7d2e104bfca86e4f58ef9a,Group_FJ,0,885d1eea80d979e945a735ff9ec5071e70109282de347645170e42232acd24dd,1704,TRUE,keypress,testresponse_l_J,496,['Longer'],choice-response,Longer,5fbc5590be36f3ba328bd883,300ms_delay_2_96,4559,216,maintaskTrials_2_l
5f7d2e104bfca86e4f58ef9a,Group_FJ,0,885d1eea80d979e945a735ff9ec5071e70109282de347645170e42232acd24dd,1704,TRUE,keypress,testresponse_s_F,2008,['Shorter'],choice-response,Shorter,5fbc5590be36f3ba328bd883,300ms_delay_2_91,5976,217,maintaskTrials_2_s
5f7d2e104bfca86e4f58ef9a,Group_FJ,0,885d1eea80d979e945a735ff9ec5071e70109282de347645170e42232acd24dd,1704,TRUE,keypress,testresponse_l_J,556,['Longer'],choice-response,Longer,5fbc5590be36f3ba328bd883,300ms_delay_2_54,4408,218,maintaskTrials_2_l
5f7d2e104bfca86e4f58ef9a,Group_FJ,0,885d1eea80d979e945a735ff9ec5071e70109282de347645170e42232acd24dd,1704,TRUE,keypress,testresponse_s_F,6596,['Shorter'],choice-response,Shorter,5fbc5590be36f3ba328bd883,300ms_delay_2_53,10396,219,maintaskTrials_2_s
5f7d2e104bfca86e4f58ef9a,Group_FJ,0,885d1eea80d979e945a735ff9ec5071e70109282de347645170e42232acd24dd,1704,FALSE,keypress,testresponse_s_F,2319,['Shorter'],choice-response,Longer,5fbc5590be36f3ba328bd883,300ms_delay_2_52,6097,220,maintaskTrials_2_s
5f7d2e104bfca86e4f58ef9a,Group_FJ,0,885d1eea80d979e945a735ff9ec5071e70109282de347645170e42232acd24dd,1704,TRUE,keypress,testresponse_s_F,1704,['Shorter'],choice-response,Shorter,5fbc5590be36f3ba328bd883,300ms_delay_2_83,5625,221,maintaskTrials_2_s
5f7d2e104bfca86e4f58ef9a,Group_FJ,0,885d1eea80d979e945a735ff9ec5071e70109282de347645170e42232acd24dd,1704,TRUE,keypress,testresponse_l_J,1263,['Longer'],choice-response,Longer,5fbc5590be36f3ba328bd883,300ms_delay_2_96,5273,222,maintaskTrials_2_l
5f7d2e104bfca86e4f58ef9a,Group_FJ,0,885d1eea80d979e945a735ff9ec5071e70109282de347645170e42232acd24dd,1704,TRUE,keypress,testresponse_s_F,1225,['Shorter'],choice-response,Shorter,5fbc5590be36f3ba328bd883,300ms_delay_2_51,5037,223,maintaskTrials_2_s
5f7d2e104bfca86e4f58ef9a,Group_FJ,0,885d1eea80d979e945a735ff9ec5071e70109282de347645170e42232acd24dd,1704,FALSE,keypress,testresponse_s_F,742,['Shorter'],choice-response,Longer,5fbc5590be36f3ba328bd883,300ms_delay_2_82,4629,224,maintaskTrials_2_s
5f7d2e104bfca86e4f58ef9a,Group_FJ,0,885d1eea80d979e945a735ff9ec5071e70109282de347645170e42232acd24dd,1704,FALSE,keypress,testresponse_l_J,6996,['Longer'],choice-response,Shorter,5fbc5590be36f3ba328bd883,300ms_delay_2_85,11288,225,maintaskTrials_2_l
5f7d2e104bfca86e4f58ef9a,Group_FJ,0,885d1eea80d979e945a735ff9ec5071e70109282de347645170e42232acd24dd,1704,TRUE,keypress,testresponse_l_J,3986,['Longer'],choice-response,Longer,5fbc5590be36f3ba328bd883,300ms_delay_2_55,7817,226,maintaskTrials_2_l
5f7d2e104bfca86e4f58ef9a,Group_FJ,0,885d1eea80d979e945a735ff9ec5071e70109282de347645170e42232acd24dd,1704,TRUE,keypress,testresponse_l_J,326,['Longer'],choice-response,Longer,5fbc5590be36f3ba328bd883,300ms_delay_2_94,4305,227,maintaskTrials_2_l
5f7d2e104bfca86e4f58ef9a,Group_FJ,0,885d1eea80d979e945a735ff9ec5071e70109282de347645170e42232acd24dd,1704,FALSE,keypress,testresponse_l_J,820,['Longer'],choice-response,Shorter,5fbc5590be36f3ba328bd883,300ms_delay_2_84,5254,228,maintaskTrials_2_l
5f7d2e104bfca86e4f58ef9a,Group_FJ,0,885d1eea80d979e945a735ff9ec5071e70109282de347645170e42232acd24dd,1704,FALSE,keypress,testresponse_s_F,664,['Shorter'],choice-response,Longer,5fbc5590be36f3ba328bd883,300ms_delay_2_92,5238,229,maintaskTrials_2_s
5f7d2e104bfca86e4f58ef9a,Group_FJ,0,885d1eea80d979e945a735ff9ec5071e70109282de347645170e42232acd24dd,1704,FALSE,keypress,testresponse_l_J,568,['Longer'],choice-response,Shorter,5fbc5590be36f3ba328bd883,300ms_delay_2_56,4398,230,maintaskTrials_2_l
5f7d2e104bfca86e4f58ef9a,Group_FJ,0,885d1eea80d979e945a735ff9ec5071e70109282de347645170e42232acd24dd,1704,FALSE,keypress,testresponse_l_J,589,['Longer'],choice-response,Shorter,5fbc5590be36f3ba328bd883,300ms_delay_2_95,4610,231,maintaskTrials_2_l
5f7d2e104bfca86e4f58ef9a,Group_FJ,0,885d1eea80d979e945a735ff9ec5071e70109282de347645170e42232acd24dd,1704,FALSE,keypress,testresponse_s_F,228,['Shorter'],choice-response,Longer,5fbc5590be36f3ba328bd883,300ms_delay_2_81,4135,232,maintaskTrials_2_s
5f7d2e104bfca86e4f58ef9a,Group_FJ,0,885d1eea80d979e945a735ff9ec5071e70109282de347645170e42232acd24dd,1704,FALSE,keypress,testresponse_l_J,850,['Longer'],choice-response,Shorter,5fbc5590be36f3ba328bd883,300ms_delay_2_86,4789,233,maintaskTrials_2_l
5f7d2e104bfca86e4f58ef9a,Group_FJ,0,885d1eea80d979e945a735ff9ec5071e70109282de347645170e42232acd24dd,1704,FALSE,keypress,testresponse_s_F,770,['Shorter'],choice-response,Longer,5fbc5590be36f3ba328bd883,300ms_delay_2_93,4944,234,maintaskTrials_2_s
5f7d2e104bfca86e4f58ef9a,Group_FJ,0,885d1eea80d979e945a735ff9ec5071e70109282de347645170e42232acd24dd,1704,FALSE,click,basic_response1,2474,[],choice-response,Male,5fbc5590be36f3ba328bd883,basic1,2487,235,basicDialogue
5f7d2e104bfca86e4f58ef9a,Group_FJ,0,885d1eea80d979e945a735ff9ec5071e70109282de347645170e42232acd24dd,1704,,,basic_response2,5310,,text-response,23,5fbc5590be36f3ba328bd883,basic2,5316,236,basicDialogue
5f7d2e104bfca86e4f58ef9a,Group_FJ,0,885d1eea80d979e945a735ff9ec5071e70109282de347645170e42232acd24dd,1704,,,music_response1,19482,,text-response,Drum 10 years,5fbc5590be36f3ba328bd883,musicbackground1,19486,237,musicBackground
5f7d2e104bfca86e4f58ef9a,Group_FJ,0,885d1eea80d979e945a735ff9ec5071e70109282de347645170e42232acd24dd,1704,,,music_response2,12684,,text-response,MUS95G; None,5fbc5590be36f3ba328bd883,musicbackground2,12691,238,musicBackground
5f7d2e104bfca86e4f58ef9a,Group_FJ,0,885d1eea80d979e945a735ff9ec5071e70109282de347645170e42232acd24dd,1704,,,music_response3,12147,,text-response,N/A,5fbc5590be36f3ba328bd883,musicbackground3,12151,239,musicBackground
5f7d2e104bfca86e4f58ef9a,Group_JF,0,34b38b84b781d28751b6846057394c59330d43f01ffed5f43a8e0acfec1a3ea9,1666,FALSE,click,survey_noise,4389,[],choice-response,3,5fbc5590be36f3ba328bd883,logistics_noise,5169,1,logisticsQuestionnaire
5f7d2e104bfca86e4f58ef9a,Group_JF,0,34b38b84b781d28751b6846057394c59330d43f01ffed5f43a8e0acfec1a3ea9,1666,FALSE,click,survey_headphone,2391,[],choice-response,Wired Headphones,5fbc5590be36f3ba328bd883,logistic_headphone,3308,2,logisticsQuestionnaire
5f7d2e104bfca86e4f58ef9a,Group_JF,0,34b38b84b781d28751b6846057394c59330d43f01ffed5f43a8e0acfec1a3ea9,1666,TRUE,click,exampleresponse_s_J,14130,['Shorter'],choice-response,Shorter,5fbc5590be36f3ba328bd883,300ms_short,20597,3,example_s_reversekey
5f7d2e104bfca86e4f58ef9a,Group_JF,0,34b38b84b781d28751b6846057394c59330d43f01ffed5f43a8e0acfec1a3ea9,1666,TRUE,keypress,exampleresponse_l_F,4398,['Longer'],choice-response,Longer,5fbc5590be36f3ba328bd883,300ms_long,11672,4,example_l_reversekey
5f7d2e104bfca86e4f58ef9a,Group_JF,0,34b38b84b781d28751b6846057394c59330d43f01ffed5f43a8e0acfec1a3ea9,1666,TRUE,keypress,exampleresponse_s_J,2134,['Shorter'],choice-response,Shorter,5fbc5590be36f3ba328bd883,300ms_short,8906,5,example_s_reversekey
5f7d2e104bfca86e4f58ef9a,Group_JF,0,34b38b84b781d28751b6846057394c59330d43f01ffed5f43a8e0acfec1a3ea9,1666,TRUE,keypress,exampleresponse_l_F,1049,['Longer'],choice-response,Longer,5fbc5590be36f3ba328bd883,300ms_long,8057,6,example_l_reversekey
5f7d2e104bfca86e4f58ef9a,Group_JF,0,34b38b84b781d28751b6846057394c59330d43f01ffed5f43a8e0acfec1a3ea9,1666,FALSE,keypress,practiceresponse_l_F,3569,['Longer'],choice-response,Shorter,5fbc5590be36f3ba328bd883,300ms_delay_2_86,10265,7,practiceTrials_l_reversekey
5f7d2e104bfca86e4f58ef9a,Group_JF,0,34b38b84b781d28751b6846057394c59330d43f01ffed5f43a8e0acfec1a3ea9,1666,FALSE,keypress,practiceresponse_s_J,1584,['Shorter'],choice-response,Longer,5fbc5590be36f3ba328bd883,300ms_delay_2_81,8869,8,practiceTrials_s_reversekey
5f7d2e104bfca86e4f58ef9a,Group_JF,0,34b38b84b781d28751b6846057394c59330d43f01ffed5f43a8e0acfec1a3ea9,1666,TRUE,keypress,practiceresponse_l_F,1774,['Longer'],choice-response,Longer,5fbc5590be36f3ba328bd883,300ms_delay_2_86,8606,9,practiceTrials_l_reversekey
5f7d2e104bfca86e4f58ef9a,Group_JF,0,34b38b84b781d28751b6846057394c59330d43f01ffed5f43a8e0acfec1a3ea9,1666,TRUE,keypress,practiceresponse_s_J,1580,['Shorter'],choice-response,Shorter,5fbc5590be36f3ba328bd883,300ms_delay_2_81,8574,10,practiceTrials_s_reversekey
5f7d2e104bfca86e4f58ef9a,Group_JF,0,34b38b84b781d28751b6846057394c59330d43f01ffed5f43a8e0acfec1a3ea9,1666,TRUE,keypress,practiceresponse_l_F,1312,['Longer'],choice-response,Longer,5fbc5590be36f3ba328bd883,300ms_delay_2_86,8107,11,practiceTrials_l_reversekey
5f7d2e104bfca86e4f58ef9a,Group_JF,0,34b38b84b781d28751b6846057394c59330d43f01ffed5f43a8e0acfec1a3ea9,1666,FALSE,keypress,practiceresponse_s_J,904,['Shorter'],choice-response,Longer,5fbc5590be36f3ba328bd883,300ms_delay_2_81,7690,12,practiceTrials_s_reversekey
5f7d2e104bfca86e4f58ef9a,Group_JF,0,34b38b84b781d28751b6846057394c59330d43f01ffed5f43a8e0acfec1a3ea9,1666,FALSE,keypress,practiceresponse_l_F,958,['Longer'],choice-response,Shorter,5fbc5590be36f3ba328bd883,300ms_delay_2_86,7799,13,practiceTrials_l_reversekey
5f7d2e104bfca86e4f58ef9a,Group_JF,0,34b38b84b781d28751b6846057394c59330d43f01ffed5f43a8e0acfec1a3ea9,1666,FALSE,keypress,practiceresponse_s_J,373,['Shorter'],choice-response,Longer,5fbc5590be36f3ba328bd883,300ms_delay_2_81,7158,14,practiceTrials_s_reversekey
5f7d2e104bfca86e4f58ef9a,Group_JF,0,34b38b84b781d28751b6846057394c59330d43f01ffed5f43a8e0acfec1a3ea9,1666,TRUE,keypress,practiceresponse_l_F,1164,['Longer'],choice-response,Longer,5fbc5590be36f3ba328bd883,300ms_delay_2_86,7948,15,practiceTrials_l_reversekey
5f7d2e104bfca86e4f58ef9a,Group_JF,0,34b38b84b781d28751b6846057394c59330d43f01ffed5f43a8e0acfec1a3ea9,1666,TRUE,keypress,practiceresponse_s_J,916,['Shorter'],choice-response,Shorter,5fbc5590be36f3ba328bd883,300ms_delay_2_81,7624,16,practiceTrials_s_reversekey
5f7d2e104bfca86e4f58ef9a,Group_JF,0,34b38b84b781d28751b6846057394c59330d43f01ffed5f43a8e0acfec1a3ea9,1666,TRUE,keypress,practiceresponse_l_F,587,['Longer'],choice-response,Longer,5fbc5590be36f3ba328bd883,300ms_delay_2_86,7390,17,practiceTrials_l_reversekey
5f7d2e104bfca86e4f58ef9a,Group_JF,0,34b38b84b781d28751b6846057394c59330d43f01ffed5f43a8e0acfec1a3ea9,1666,TRUE,keypress,practiceresponse_s_J,681,['Shorter'],choice-response,Shorter,5fbc5590be36f3ba328bd883,300ms_delay_2_81,7341,18,practiceTrials_s_reversekey
5f7d2e104bfca86e4f58ef9a,Group_JF,0,34b38b84b781d28751b6846057394c59330d43f01ffed5f43a8e0acfec1a3ea9,1666,TRUE,keypress,testresponse_s_J,247,['Shorter'],choice-response,Shorter,5fbc5590be36f3ba328bd883,300ms_delay_2_83,4283,19,maintaskTrials_2_s_reversekey
5f7d2e104bfca86e4f58ef9a,Group_JF,0,34b38b84b781d28751b6846057394c59330d43f01ffed5f43a8e0acfec1a3ea9,1666,TRUE,keypress,testresponse_l_F,461,['Longer'],choice-response,Longer,5fbc5590be36f3ba328bd883,300ms_delay_2_94,4665,20,maintaskTrials_2_l_reversekey
5f7d2e104bfca86e4f58ef9a,Group_JF,0,34b38b84b781d28751b6846057394c59330d43f01ffed5f43a8e0acfec1a3ea9,1666,FALSE,keypress,testresponse_s_J,778,['Shorter'],choice-response,Longer,5fbc5590be36f3ba328bd883,300ms_delay_2_91,5018,21,maintaskTrials_2_s_reversekey
5f7d2e104bfca86e4f58ef9a,Group_JF,0,34b38b84b781d28751b6846057394c59330d43f01ffed5f43a8e0acfec1a3ea9,1666,FALSE,keypress,testresponse_l_F,536,['Longer'],choice-response,Shorter,5fbc5590be36f3ba328bd883,300ms_delay_2_54,4570,22,maintaskTrials_2_l_reversekey
5f7d2e104bfca86e4f58ef9a,Group_JF,0,34b38b84b781d28751b6846057394c59330d43f01ffed5f43a8e0acfec1a3ea9,1666,FALSE,keypress,testresponse_s_J,1363,['Shorter'],choice-response,Longer,5fbc5590be36f3ba328bd883,300ms_delay_2_81,5480,23,maintaskTrials_2_s_reversekey
5f7d2e104bfca86e4f58ef9a,Group_JF,0,34b38b84b781d28751b6846057394c59330d43f01ffed5f43a8e0acfec1a3ea9,1666,TRUE,keypress,testresponse_l_F,954,['Longer'],choice-response,Longer,5fbc5590be36f3ba328bd883,300ms_delay_2_85,5070,24,maintaskTrials_2_l_reversekey
5f7d2e104bfca86e4f58ef9a,Group_JF,0,34b38b84b781d28751b6846057394c59330d43f01ffed5f43a8e0acfec1a3ea9,1666,FALSE,keypress,testresponse_l_F,276,['Longer'],choice-response,Shorter,5fbc5590be36f3ba328bd883,300ms_delay_2_55,4376,25,maintaskTrials_2_l_reversekey
5f7d2e104bfca86e4f58ef9a,Group_JF,0,34b38b84b781d28751b6846057394c59330d43f01ffed5f43a8e0acfec1a3ea9,1666,TRUE,keypress,testresponse_l_F,955,['Longer'],choice-response,Longer,5fbc5590be36f3ba328bd883,300ms_delay_2_95,5160,26,maintaskTrials_2_l_reversekey
5f7d2e104bfca86e4f58ef9a,Group_JF,0,34b38b84b781d28751b6846057394c59330d43f01ffed5f43a8e0acfec1a3ea9,1666,FALSE,keypress,testresponse_s_J,971,['Shorter'],choice-response,Longer,5fbc5590be36f3ba328bd883,300ms_delay_2_93,5160,27,maintaskTrials_2_s_reversekey
5f7d2e104bfca86e4f58ef9a,Group_JF,0,34b38b84b781d28751b6846057394c59330d43f01ffed5f43a8e0acfec1a3ea9,1666,TRUE,keypress,testresponse_s_J,639,['Shorter'],choice-response,Shorter,5fbc5590be36f3ba328bd883,300ms_delay_2_51,4668,28,maintaskTrials_2_s_reversekey
5f7d2e104bfca86e4f58ef9a,Group_JF,0,34b38b84b781d28751b6846057394c59330d43f01ffed5f43a8e0acfec1a3ea9,1666,TRUE,keypress,testresponse_l_F,605,['Longer'],choice-response,Longer,5fbc5590be36f3ba328bd883,300ms_delay_2_56,4698,29,maintaskTrials_2_l_reversekey
5f7d2e104bfca86e4f58ef9a,Group_JF,0,34b38b84b781d28751b6846057394c59330d43f01ffed5f43a8e0acfec1a3ea9,1666,TRUE,keypress,testresponse_s_J,580,['Shorter'],choice-response,Shorter,5fbc5590be36f3ba328bd883,300ms_delay_2_92,4721,30,maintaskTrials_2_s_reversekey
5f7d2e104bfca86e4f58ef9a,Group_JF,0,34b38b84b781d28751b6846057394c59330d43f01ffed5f43a8e0acfec1a3ea9,1666,TRUE,keypress,testresponse_l_F,661,['Longer'],choice-response,Longer,5fbc5590be36f3ba328bd883,300ms_delay_2_86,4831,31,maintaskTrials_2_l_reversekey
5f7d2e104bfca86e4f58ef9a,Group_JF,0,34b38b84b781d28751b6846057394c59330d43f01ffed5f43a8e0acfec1a3ea9,1666,TRUE,keypress,testresponse_s_J,612,['Shorter'],choice-response,Shorter,5fbc5590be36f3ba328bd883,300ms_delay_2_53,4559,32,maintaskTrials_2_s_reversekey
5f7d2e104bfca86e4f58ef9a,Group_JF,0,34b38b84b781d28751b6846057394c59330d43f01ffed5f43a8e0acfec1a3ea9,1666,FALSE,keypress,testresponse_s_J,1725,['Shorter'],choice-response,Longer,5fbc5590be36f3ba328bd883,300ms_delay_2_82,5809,33,maintaskTrials_2_s_reversekey
5f7d2e104bfca86e4f58ef9a,Group_JF,0,34b38b84b781d28751b6846057394c59330d43f01ffed5f43a8e0acfec1a3ea9,1666,TRUE,keypress,testresponse_l_F,676,['Longer'],choice-response,Longer,5fbc5590be36f3ba328bd883,300ms_delay_2_96,4875,34,maintaskTrials_2_l_reversekey
5f7d2e104bfca86e4f58ef9a,Group_JF,0,34b38b84b781d28751b6846057394c59330d43f01ffed5f43a8e0acfec1a3ea9,1666,FALSE,keypress,testresponse_l_F,761,['Longer'],choice-response,Shorter,5fbc5590be36f3ba328bd883,300ms_delay_2_84,4925,35,maintaskTrials_2_l_reversekey
5f7d2e104bfca86e4f58ef9a,Group_JF,0,34b38b84b781d28751b6846057394c59330d43f01ffed5f43a8e0acfec1a3ea9,1666,TRUE,keypress,testresponse_s_J,1670,['Shorter'],choice-response,Shorter,5fbc5590be36f3ba328bd883,300ms_delay_2_52,5729,36,maintaskTrials_2_s_reversekey
5f7d2e104bfca86e4f58ef9a,Group_JF,0,34b38b84b781d28751b6846057394c59330d43f01ffed5f43a8e0acfec1a3ea9,1666,FALSE,keypress,testresponse_s_J,544,['Shorter'],choice-response,Longer,5fbc5590be36f3ba328bd883,300ms_delay_2_91,4718,37,maintaskTrials_2_s_reversekey
5f7d2e104bfca86e4f58ef9a,Group_JF,0,34b38b84b781d28751b6846057394c59330d43f01ffed5f43a8e0acfec1a3ea9,1666,TRUE,keypress,testresponse_s_J,244,['Shorter'],choice-response,Shorter,5fbc5590be36f3ba328bd883,300ms_delay_2_83,4404,38,maintaskTrials_2_s_reversekey
5f7d2e104bfca86e4f58ef9a,Group_JF,0,34b38b84b781d28751b6846057394c59330d43f01ffed5f43a8e0acfec1a3ea9,1666,TRUE,keypress,testresponse_l_F,272,['Longer'],choice-response,Longer,5fbc5590be36f3ba328bd883,300ms_delay_2_85,4365,39,maintaskTrials_2_l_reversekey
5f7d2e104bfca86e4f58ef9a,Group_JF,0,34b38b84b781d28751b6846057394c59330d43f01ffed5f43a8e0acfec1a3ea9,1666,TRUE,keypress,testresponse_s_J,364,['Shorter'],choice-response,Shorter,5fbc5590be36f3ba328bd883,300ms_delay_2_53,4440,40,maintaskTrials_2_s_reversekey
5f7d2e104bfca86e4f58ef9a,Group_JF,0,34b38b84b781d28751b6846057394c59330d43f01ffed5f43a8e0acfec1a3ea9,1666,FALSE,keypress,testresponse_l_F,558,['Longer'],choice-response,Shorter,5fbc5590be36f3ba328bd883,300ms_delay_2_56,4568,41,maintaskTrials_2_l_reversekey
5f7d2e104bfca86e4f58ef9a,Group_JF,0,34b38b84b781d28751b6846057394c59330d43f01ffed5f43a8e0acfec1a3ea9,1666,FALSE,keypress,testresponse_s_J,508,['Shorter'],choice-response,Longer,5fbc5590be36f3ba328bd883,300ms_delay_2_92,4724,42,maintaskTrials_2_s_reversekey
5f7d2e104bfca86e4f58ef9a,Group_JF,0,34b38b84b781d28751b6846057394c59330d43f01ffed5f43a8e0acfec1a3ea9,1666,FALSE,keypress,testresponse_s_J,557,['Shorter'],choice-response,Longer,5fbc5590be36f3ba328bd883,300ms_delay_2_93,4788,43,maintaskTrials_2_s_reversekey
5f7d2e104bfca86e4f58ef9a,Group_JF,0,34b38b84b781d28751b6846057394c59330d43f01ffed5f43a8e0acfec1a3ea9,1666,TRUE,keypress,testresponse_l_F,792,['Longer'],choice-response,Longer,5fbc5590be36f3ba328bd883,300ms_delay_2_84,5032,44,maintaskTrials_2_l_reversekey
5f7d2e104bfca86e4f58ef9a,Group_JF,0,34b38b84b781d28751b6846057394c59330d43f01ffed5f43a8e0acfec1a3ea9,1666,FALSE,keypress,testresponse_s_J,368,['Shorter'],choice-response,Longer,5fbc5590be36f3ba328bd883,300ms_delay_2_82,4454,45,maintaskTrials_2_s_reversekey
5f7d2e104bfca86e4f58ef9a,Group_JF,0,34b38b84b781d28751b6846057394c59330d43f01ffed5f43a8e0acfec1a3ea9,1666,TRUE,keypress,testresponse_s_J,829,['Shorter'],choice-response,Shorter,5fbc5590be36f3ba328bd883,300ms_delay_2_51,4876,46,maintaskTrials_2_s_reversekey
5f7d2e104bfca86e4f58ef9a,Group_JF,0,34b38b84b781d28751b6846057394c59330d43f01ffed5f43a8e0acfec1a3ea9,1666,FALSE,keypress,testresponse_l_F,282,['Longer'],choice-response,Shorter,5fbc5590be36f3ba328bd883,300ms_delay_2_54,4272,47,maintaskTrials_2_l_reversekey
5f7d2e104bfca86e4f58ef9a,Group_JF,0,34b38b84b781d28751b6846057394c59330d43f01ffed5f43a8e0acfec1a3ea9,1666,TRUE,keypress,testresponse_l_F,284,['Longer'],choice-response,Longer,5fbc5590be36f3ba328bd883,300ms_delay_2_95,4534,48,maintaskTrials_2_l_reversekey
5f7d2e104bfca86e4f58ef9a,Group_JF,0,34b38b84b781d28751b6846057394c59330d43f01ffed5f43a8e0acfec1a3ea9,1666,TRUE,keypress,testresponse_l_F,517,['Longer'],choice-response,Longer,5fbc5590be36f3ba328bd883,300ms_delay_2_96,4841,49,maintaskTrials_2_l_reversekey
5f7d2e104bfca86e4f58ef9a,Group_JF,0,34b38b84b781d28751b6846057394c59330d43f01ffed5f43a8e0acfec1a3ea9,1666,TRUE,keypress,testresponse_s_J,70,['Shorter'],choice-response,Shorter,5fbc5590be36f3ba328bd883,300ms_delay_2_81,4110,50,maintaskTrials_2_s_reversekey
5f7d2e104bfca86e4f58ef9a,Group_JF,0,34b38b84b781d28751b6846057394c59330d43f01ffed5f43a8e0acfec1a3ea9,1666,TRUE,keypress,testresponse_l_F,1333,['Longer'],choice-response,Longer,5fbc5590be36f3ba328bd883,300ms_delay_2_55,5422,51,maintaskTrials_2_l_reversekey
5f7d2e104bfca86e4f58ef9a,Group_JF,0,34b38b84b781d28751b6846057394c59330d43f01ffed5f43a8e0acfec1a3ea9,1666,TRUE,keypress,testresponse_l_F,172,['Longer'],choice-response,Longer,5fbc5590be36f3ba328bd883,300ms_delay_2_86,4331,52,maintaskTrials_2_l_reversekey
5f7d2e104bfca86e4f58ef9a,Group_JF,0,34b38b84b781d28751b6846057394c59330d43f01ffed5f43a8e0acfec1a3ea9,1666,FALSE,keypress,testresponse_l_F,453,['Longer'],choice-response,Shorter,5fbc5590be36f3ba328bd883,300ms_delay_2_94,4710,53,maintaskTrials_2_l_reversekey
5f7d2e104bfca86e4f58ef9a,Group_JF,0,34b38b84b781d28751b6846057394c59330d43f01ffed5f43a8e0acfec1a3ea9,1666,FALSE,keypress,testresponse_s_J,1180,['Shorter'],choice-response,Longer,5fbc5590be36f3ba328bd883,300ms_delay_2_52,5115,54,maintaskTrials_2_s_reversekey
5f7d2e104bfca86e4f58ef9a,Group_JF,0,34b38b84b781d28751b6846057394c59330d43f01ffed5f43a8e0acfec1a3ea9,1666,FALSE,keypress,testresponse_s_J,239,['Shorter'],choice-response,Longer,5fbc5590be36f3ba328bd883,300ms_delay_2_93,4462,55,maintaskTrials_2_s_reversekey
5f7d2e104bfca86e4f58ef9a,Group_JF,0,34b38b84b781d28751b6846057394c59330d43f01ffed5f43a8e0acfec1a3ea9,1666,FALSE,keypress,testresponse_s_J,331,['Shorter'],choice-response,Longer,5fbc5590be36f3ba328bd883,300ms_delay_2_92,4513,56,maintaskTrials_2_s_reversekey
5f7d2e104bfca86e4f58ef9a,Group_JF,0,34b38b84b781d28751b6846057394c59330d43f01ffed5f43a8e0acfec1a3ea9,1666,FALSE,keypress,testresponse_l_F,595,['Longer'],choice-response,Shorter,5fbc5590be36f3ba328bd883,300ms_delay_2_96,4890,57,maintaskTrials_2_l_reversekey
5f7d2e104bfca86e4f58ef9a,Group_JF,0,34b38b84b781d28751b6846057394c59330d43f01ffed5f43a8e0acfec1a3ea9,1666,TRUE,keypress,testresponse_s_J,1336,['Shorter'],choice-response,Shorter,5fbc5590be36f3ba328bd883,300ms_delay_2_91,5576,58,maintaskTrials_2_s_reversekey
5f7d2e104bfca86e4f58ef9a,Group_JF,0,34b38b84b781d28751b6846057394c59330d43f01ffed5f43a8e0acfec1a3ea9,1666,FALSE,keypress,testresponse_l_F,992,['Longer'],choice-response,Shorter,5fbc5590be36f3ba328bd883,300ms_delay_2_94,5260,59,maintaskTrials_2_l_reversekey
5f7d2e104bfca86e4f58ef9a,Group_JF,0,34b38b84b781d28751b6846057394c59330d43f01ffed5f43a8e0acfec1a3ea9,1666,FALSE,keypress,testresponse_l_F,2144,['Longer'],choice-response,Shorter,5fbc5590be36f3ba328bd883,300ms_delay_2_95,6394,60,maintaskTrials_2_l_reversekey
5f7d2e104bfca86e4f58ef9a,Group_JF,0,34b38b84b781d28751b6846057394c59330d43f01ffed5f43a8e0acfec1a3ea9,1666,TRUE,keypress,testresponse_l_F,1604,['Longer'],choice-response,Longer,5fbc5590be36f3ba328bd883,300ms_delay_2_85,5783,61,maintaskTrials_2_l_reversekey
5f7d2e104bfca86e4f58ef9a,Group_JF,0,34b38b84b781d28751b6846057394c59330d43f01ffed5f43a8e0acfec1a3ea9,1666,FALSE,keypress,testresponse_l_F,3055,['Longer'],choice-response,Shorter,5fbc5590be36f3ba328bd883,300ms_delay_2_55,7076,62,maintaskTrials_2_l_reversekey
5f7d2e104bfca86e4f58ef9a,Group_JF,0,34b38b84b781d28751b6846057394c59330d43f01ffed5f43a8e0acfec1a3ea9,1666,TRUE,keypress,testresponse_s_J,543,['Shorter'],choice-response,Shorter,5fbc5590be36f3ba328bd883,300ms_delay_2_53,4613,63,maintaskTrials_2_s_reversekey
5f7d2e104bfca86e4f58ef9a,Group_JF,0,34b38b84b781d28751b6846057394c59330d43f01ffed5f43a8e0acfec1a3ea9,1666,TRUE,keypress,testresponse_s_J,55,['Shorter'],choice-response,Shorter,5fbc5590be36f3ba328bd883,300ms_delay_2_81,4174,64,maintaskTrials_2_s_reversekey
5f7d2e104bfca86e4f58ef9a,Group_JF,0,34b38b84b781d28751b6846057394c59330d43f01ffed5f43a8e0acfec1a3ea9,1666,TRUE,keypress,testresponse_s_J,1173,['Shorter'],choice-response,Shorter,5fbc5590be36f3ba328bd883,300ms_delay_2_52,5138,65,maintaskTrials_2_s_reversekey
5f7d2e104bfca86e4f58ef9a,Group_JF,0,34b38b84b781d28751b6846057394c59330d43f01ffed5f43a8e0acfec1a3ea9,1666,TRUE,keypress,testresponse_l_F,70,['Longer'],choice-response,Longer,5fbc5590be36f3ba328bd883,300ms_delay_2_54,4048,66,maintaskTrials_2_l_reversekey
5f7d2e104bfca86e4f58ef9a,Group_JF,0,34b38b84b781d28751b6846057394c59330d43f01ffed5f43a8e0acfec1a3ea9,1666,TRUE,keypress,testresponse_l_F,169,['Longer'],choice-response,Longer,5fbc5590be36f3ba328bd883,300ms_delay_2_56,4184,67,maintaskTrials_2_l_reversekey
5f7d2e104bfca86e4f58ef9a,Group_JF,0,34b38b84b781d28751b6846057394c59330d43f01ffed5f43a8e0acfec1a3ea9,1666,FALSE,keypress,testresponse_l_F,210,['Longer'],choice-response,Shorter,5fbc5590be36f3ba328bd883,300ms_delay_2_86,4329,68,maintaskTrials_2_l_reversekey
5f7d2e104bfca86e4f58ef9a,Group_JF,0,34b38b84b781d28751b6846057394c59330d43f01ffed5f43a8e0acfec1a3ea9,1666,FALSE,keypress,testresponse_s_J,254,['Shorter'],choice-response,Longer,5fbc5590be36f3ba328bd883,300ms_delay_2_83,4328,69,maintaskTrials_2_s_reversekey
5f7d2e104bfca86e4f58ef9a,Group_JF,0,34b38b84b781d28751b6846057394c59330d43f01ffed5f43a8e0acfec1a3ea9,1666,TRUE,keypress,testresponse_s_J,271,['Shorter'],choice-response,Shorter,5fbc5590be36f3ba328bd883,300ms_delay_2_51,4239,70,maintaskTrials_2_s_reversekey
5f7d2e104bfca86e4f58ef9a,Group_JF,0,34b38b84b781d28751b6846057394c59330d43f01ffed5f43a8e0acfec1a3ea9,1666,FALSE,keypress,testresponse_l_F,271,['Longer'],choice-response,Shorter,5fbc5590be36f3ba328bd883,300ms_delay_2_84,4434,71,maintaskTrials_2_l_reversekey
5f7d2e104bfca86e4f58ef9a,Group_JF,0,34b38b84b781d28751b6846057394c59330d43f01ffed5f43a8e0acfec1a3ea9,1666,TRUE,keypress,testresponse_s_J,337,['Shorter'],choice-response,Shorter,5fbc5590be36f3ba328bd883,300ms_delay_2_82,4375,72,maintaskTrials_2_s_reversekey
5f7d2e104bfca86e4f58ef9a,Group_JF,0,34b38b84b781d28751b6846057394c59330d43f01ffed5f43a8e0acfec1a3ea9,1666,TRUE,keypress,testresponse_s_J,3782,['Shorter'],choice-response,Shorter,5fbc5590be36f3ba328bd883,300ms_delay_2_92,8006,73,maintaskTrials_2_s_reversekey
5f7d2e104bfca86e4f58ef9a,Group_JF,0,34b38b84b781d28751b6846057394c59330d43f01ffed5f43a8e0acfec1a3ea9,1666,FALSE,keypress,testresponse_l_F,1234,['Longer'],choice-response,Shorter,5fbc5590be36f3ba328bd883,300ms_delay_2_54,5308,74,maintaskTrials_2_l_reversekey
5f7d2e104bfca86e4f58ef9a,Group_JF,0,34b38b84b781d28751b6846057394c59330d43f01ffed5f43a8e0acfec1a3ea9,1666,FALSE,keypress,testresponse_l_F,1637,['Longer'],choice-response,Shorter,5fbc5590be36f3ba328bd883,300ms_delay_2_94,5864,75,maintaskTrials_2_l_reversekey
5f7d2e104bfca86e4f58ef9a,Group_JF,0,34b38b84b781d28751b6846057394c59330d43f01ffed5f43a8e0acfec1a3ea9,1666,FALSE,keypress,testresponse_l_F,1203,['Longer'],choice-response,Shorter,5fbc5590be36f3ba328bd883,300ms_delay_2_96,5870,76,maintaskTrials_2_l_reversekey
5f7d2e104bfca86e4f58ef9a,Group_JF,0,34b38b84b781d28751b6846057394c59330d43f01ffed5f43a8e0acfec1a3ea9,1666,FALSE,keypress,testresponse_l_F,1147,['Longer'],choice-response,Shorter,5fbc5590be36f3ba328bd883,300ms_delay_2_95,5420,77,maintaskTrials_2_l_reversekey
5f7d2e104bfca86e4f58ef9a,Group_JF,0,34b38b84b781d28751b6846057394c59330d43f01ffed5f43a8e0acfec1a3ea9,1666,TRUE,keypress,testresponse_l_F,320,['Longer'],choice-response,Longer,5fbc5590be36f3ba328bd883,300ms_delay_2_86,4503,78,maintaskTrials_2_l_reversekey
5f7d2e104bfca86e4f58ef9a,Group_JF,0,34b38b84b781d28751b6846057394c59330d43f01ffed5f43a8e0acfec1a3ea9,1666,TRUE,keypress,testresponse_s_J,728,['Shorter'],choice-response,Shorter,5fbc5590be36f3ba328bd883,300ms_delay_2_51,4781,79,maintaskTrials_2_s_reversekey
5f7d2e104bfca86e4f58ef9a,Group_JF,0,34b38b84b781d28751b6846057394c59330d43f01ffed5f43a8e0acfec1a3ea9,1666,TRUE,keypress,testresponse_s_J,480,['Shorter'],choice-response,Shorter,5fbc5590be36f3ba328bd883,300ms_delay_2_52,4519,80,maintaskTrials_2_s_reversekey
5f7d2e104bfca86e4f58ef9a,Group_JF,0,34b38b84b781d28751b6846057394c59330d43f01ffed5f43a8e0acfec1a3ea9,1666,FALSE,keypress,testresponse_s_J,352,['Shorter'],choice-response,Longer,5fbc5590be36f3ba328bd883,300ms_delay_2_82,4500,81,maintaskTrials_2_s_reversekey
5f7d2e104bfca86e4f58ef9a,Group_JF,0,34b38b84b781d28751b6846057394c59330d43f01ffed5f43a8e0acfec1a3ea9,1666,TRUE,keypress,testresponse_s_J,767,['Shorter'],choice-response,Shorter,5fbc5590be36f3ba328bd883,300ms_delay_2_83,4925,82,maintaskTrials_2_s_reversekey
5f7d2e104bfca86e4f58ef9a,Group_JF,0,34b38b84b781d28751b6846057394c59330d43f01ffed5f43a8e0acfec1a3ea9,1666,TRUE,keypress,testresponse_l_F,410,['Longer'],choice-response,Longer,5fbc5590be36f3ba328bd883,300ms_delay_2_84,4564,83,maintaskTrials_2_l_reversekey
5f7d2e104bfca86e4f58ef9a,Group_JF,0,34b38b84b781d28751b6846057394c59330d43f01ffed5f43a8e0acfec1a3ea9,1666,TRUE,keypress,testresponse_s_J,1733,['Shorter'],choice-response,Shorter,5fbc5590be36f3ba328bd883,300ms_delay_2_81,5786,84,maintaskTrials_2_s_reversekey
5f7d2e104bfca86e4f58ef9a,Group_JF,0,34b38b84b781d28751b6846057394c59330d43f01ffed5f43a8e0acfec1a3ea9,1666,TRUE,keypress,testresponse_s_J,2339,['Shorter'],choice-response,Shorter,5fbc5590be36f3ba328bd883,300ms_delay_2_93,6576,85,maintaskTrials_2_s_reversekey
5f7d2e104bfca86e4f58ef9a,Group_JF,0,34b38b84b781d28751b6846057394c59330d43f01ffed5f43a8e0acfec1a3ea9,1666,TRUE,keypress,testresponse_l_F,227,['Longer'],choice-response,Longer,5fbc5590be36f3ba328bd883,300ms_delay_2_85,4411,86,maintaskTrials_2_l_reversekey
5f7d2e104bfca86e4f58ef9a,Group_JF,0,34b38b84b781d28751b6846057394c59330d43f01ffed5f43a8e0acfec1a3ea9,1666,TRUE,keypress,testresponse_s_J,884,['Shorter'],choice-response,Shorter,5fbc5590be36f3ba328bd883,300ms_delay_2_53,4819,87,maintaskTrials_2_s_reversekey
5f7d2e104bfca86e4f58ef9a,Group_JF,0,34b38b84b781d28751b6846057394c59330d43f01ffed5f43a8e0acfec1a3ea9,1666,TRUE,keypress,testresponse_s_J,2499,['Shorter'],choice-response,Shorter,5fbc5590be36f3ba328bd883,300ms_delay_2_91,6725,88,maintaskTrials_2_s_reversekey
5f7d2e104bfca86e4f58ef9a,Group_JF,0,34b38b84b781d28751b6846057394c59330d43f01ffed5f43a8e0acfec1a3ea9,1666,FALSE,keypress,testresponse_l_F,101,['Longer'],choice-response,Shorter,5fbc5590be36f3ba328bd883,300ms_delay_2_56,4122,89,maintaskTrials_2_l_reversekey
5f7d2e104bfca86e4f58ef9a,Group_JF,0,34b38b84b781d28751b6846057394c59330d43f01ffed5f43a8e0acfec1a3ea9,1666,FALSE,keypress,testresponse_l_F,55,['Longer'],choice-response,Shorter,5fbc5590be36f3ba328bd883,300ms_delay_2_55,4107,90,maintaskTrials_2_l_reversekey
5f7d2e104bfca86e4f58ef9a,Group_JF,0,34b38b84b781d28751b6846057394c59330d43f01ffed5f43a8e0acfec1a3ea9,1666,FALSE,keypress,testresponse_l_F,250,['Longer'],choice-response,Shorter,5fbc5590be36f3ba328bd883,300ms_delay_2_85,4405,91,maintaskTrials_2_l_reversekey
5f7d2e104bfca86e4f58ef9a,Group_JF,0,34b38b84b781d28751b6846057394c59330d43f01ffed5f43a8e0acfec1a3ea9,1666,FALSE,keypress,testresponse_l_F,260,['Longer'],choice-response,Shorter,5fbc5590be36f3ba328bd883,300ms_delay_2_96,4493,92,maintaskTrials_2_l_reversekey
5f7d2e104bfca86e4f58ef9a,Group_JF,0,34b38b84b781d28751b6846057394c59330d43f01ffed5f43a8e0acfec1a3ea9,1666,TRUE,keypress,testresponse_s_J,194,['Shorter'],choice-response,Shorter,5fbc5590be36f3ba328bd883,300ms_delay_2_82,4295,93,maintaskTrials_2_s_reversekey
5f7d2e104bfca86e4f58ef9a,Group_JF,0,34b38b84b781d28751b6846057394c59330d43f01ffed5f43a8e0acfec1a3ea9,1666,FALSE,keypress,testresponse_s_J,224,['Shorter'],choice-response,Longer,5fbc5590be36f3ba328bd883,300ms_delay_2_83,4351,94,maintaskTrials_2_s_reversekey
5f7d2e104bfca86e4f58ef9a,Group_JF,0,34b38b84b781d28751b6846057394c59330d43f01ffed5f43a8e0acfec1a3ea9,1666,FALSE,keypress,testresponse_s_J,456,['Shorter'],choice-response,Longer,5fbc5590be36f3ba328bd883,300ms_delay_2_81,4583,95,maintaskTrials_2_s_reversekey
5f7d2e104bfca86e4f58ef9a,Group_JF,0,34b38b84b781d28751b6846057394c59330d43f01ffed5f43a8e0acfec1a3ea9,1666,TRUE,keypress,testresponse_l_F,507,['Longer'],choice-response,Longer,5fbc5590be36f3ba328bd883,300ms_delay_2_54,4479,96,maintaskTrials_2_l_reversekey
5f7d2e104bfca86e4f58ef9a,Group_JF,0,34b38b84b781d28751b6846057394c59330d43f01ffed5f43a8e0acfec1a3ea9,1666,FALSE,keypress,testresponse_l_F,819,['Longer'],choice-response,Shorter,5fbc5590be36f3ba328bd883,300ms_delay_2_95,4973,97,maintaskTrials_2_l_reversekey
5f7d2e104bfca86e4f58ef9a,Group_JF,0,34b38b84b781d28751b6846057394c59330d43f01ffed5f43a8e0acfec1a3ea9,1666,TRUE,keypress,testresponse_s_J,579,['Shorter'],choice-response,Shorter,5fbc5590be36f3ba328bd883,300ms_delay_2_52,4660,98,maintaskTrials_2_s_reversekey
5f7d2e104bfca86e4f58ef9a,Group_JF,0,34b38b84b781d28751b6846057394c59330d43f01ffed5f43a8e0acfec1a3ea9,1666,TRUE,keypress,testresponse_s_J,362,['Shorter'],choice-response,Shorter,5fbc5590be36f3ba328bd883,300ms_delay_2_51,4404,99,maintaskTrials_2_s_reversekey
5f7d2e104bfca86e4f58ef9a,Group_JF,0,34b38b84b781d28751b6846057394c59330d43f01ffed5f43a8e0acfec1a3ea9,1666,TRUE,keypress,testresponse_s_J,670,['Shorter'],choice-response,Shorter,5fbc5590be36f3ba328bd883,300ms_delay_2_93,4900,100,maintaskTrials_2_s_reversekey
5f7d2e104bfca86e4f58ef9a,Group_JF,0,34b38b84b781d28751b6846057394c59330d43f01ffed5f43a8e0acfec1a3ea9,1666,FALSE,keypress,testresponse_l_F,2864,['Longer'],choice-response,Shorter,5fbc5590be36f3ba328bd883,300ms_delay_2_55,6943,101,maintaskTrials_2_l_reversekey
5f7d2e104bfca86e4f58ef9a,Group_JF,0,34b38b84b781d28751b6846057394c59330d43f01ffed5f43a8e0acfec1a3ea9,1666,FALSE,keypress,testresponse_s_J,1038,['Shorter'],choice-response,Longer,5fbc5590be36f3ba328bd883,300ms_delay_2_92,5176,102,maintaskTrials_2_s_reversekey
5f7d2e104bfca86e4f58ef9a,Group_JF,0,34b38b84b781d28751b6846057394c59330d43f01ffed5f43a8e0acfec1a3ea9,1666,TRUE,keypress,testresponse_l_F,459,['Longer'],choice-response,Longer,5fbc5590be36f3ba328bd883,300ms_delay_2_86,4501,103,maintaskTrials_2_l_reversekey
5f7d2e104bfca86e4f58ef9a,Group_JF,0,34b38b84b781d28751b6846057394c59330d43f01ffed5f43a8e0acfec1a3ea9,1666,TRUE,keypress,testresponse_l_F,412,['Longer'],choice-response,Longer,5fbc5590be36f3ba328bd883,300ms_delay_2_94,4681,104,maintaskTrials_2_l_reversekey
5f7d2e104bfca86e4f58ef9a,Group_JF,0,34b38b84b781d28751b6846057394c59330d43f01ffed5f43a8e0acfec1a3ea9,1666,TRUE,keypress,testresponse_l_F,977,['Longer'],choice-response,Longer,5fbc5590be36f3ba328bd883,300ms_delay_2_84,5012,105,maintaskTrials_2_l_reversekey
5f7d2e104bfca86e4f58ef9a,Group_JF,0,34b38b84b781d28751b6846057394c59330d43f01ffed5f43a8e0acfec1a3ea9,1666,FALSE,keypress,testresponse_s_J,197,['Shorter'],choice-response,Longer,5fbc5590be36f3ba328bd883,300ms_delay_2_53,4283,106,maintaskTrials_2_s_reversekey
5f7d2e104bfca86e4f58ef9a,Group_JF,0,34b38b84b781d28751b6846057394c59330d43f01ffed5f43a8e0acfec1a3ea9,1666,FALSE,keypress,testresponse_s_J,4745,['Shorter'],choice-response,Longer,5fbc5590be36f3ba328bd883,300ms_delay_2_91,8974,107,maintaskTrials_2_s_reversekey
5f7d2e104bfca86e4f58ef9a,Group_JF,0,34b38b84b781d28751b6846057394c59330d43f01ffed5f43a8e0acfec1a3ea9,1666,TRUE,keypress,testresponse_l_F,311,['Longer'],choice-response,Longer,5fbc5590be36f3ba328bd883,300ms_delay_2_56,4424,108,maintaskTrials_2_l_reversekey
5f7d2e104bfca86e4f58ef9a,Group_JF,0,34b38b84b781d28751b6846057394c59330d43f01ffed5f43a8e0acfec1a3ea9,1666,TRUE,keypress,testresponse_l_F,1672,['Longer'],choice-response,Longer,5fbc5590be36f3ba328bd883,300ms_delay_2_95,5918,109,maintaskTrials_2_l_reversekey
5f7d2e104bfca86e4f58ef9a,Group_JF,0,34b38b84b781d28751b6846057394c59330d43f01ffed5f43a8e0acfec1a3ea9,1666,FALSE,click,testresponse_s_J,2456,['Shorter'],choice-response,Longer,5fbc5590be36f3ba328bd883,300ms_delay_2_91,6532,110,maintaskTrials_2_s_reversekey
5f7d2e104bfca86e4f58ef9a,Group_JF,0,34b38b84b781d28751b6846057394c59330d43f01ffed5f43a8e0acfec1a3ea9,1666,TRUE,click,testresponse_l_F,944,['Longer'],choice-response,Longer,5fbc5590be36f3ba328bd883,300ms_delay_2_94,5178,111,maintaskTrials_2_l_reversekey
5f7d2e104bfca86e4f58ef9a,Group_JF,0,34b38b84b781d28751b6846057394c59330d43f01ffed5f43a8e0acfec1a3ea9,1666,FALSE,click,testresponse_l_F,1059,['Longer'],choice-response,Shorter,5fbc5590be36f3ba328bd883,300ms_delay_2_56,5034,112,maintaskTrials_2_l_reversekey
5f7d2e104bfca86e4f58ef9a,Group_JF,0,34b38b84b781d28751b6846057394c59330d43f01ffed5f43a8e0acfec1a3ea9,1666,FALSE,click,testresponse_l_F,681,['Longer'],choice-response,Shorter,5fbc5590be36f3ba328bd883,300ms_delay_2_55,4930,113,maintaskTrials_2_l_reversekey
5f7d2e104bfca86e4f58ef9a,Group_JF,0,34b38b84b781d28751b6846057394c59330d43f01ffed5f43a8e0acfec1a3ea9,1666,TRUE,click,testresponse_s_J,2157,['Shorter'],choice-response,Shorter,5fbc5590be36f3ba328bd883,300ms_delay_2_53,6139,114,maintaskTrials_2_s_reversekey
5f7d2e104bfca86e4f58ef9a,Group_JF,0,34b38b84b781d28751b6846057394c59330d43f01ffed5f43a8e0acfec1a3ea9,1666,FALSE,click,testresponse_s_J,1041,['Shorter'],choice-response,Longer,5fbc5590be36f3ba328bd883,300ms_delay_2_92,5279,115,maintaskTrials_2_s_reversekey
5f7d2e104bfca86e4f58ef9a,Group_JF,0,34b38b84b781d28751b6846057394c59330d43f01ffed5f43a8e0acfec1a3ea9,1666,TRUE,click,testresponse_l_F,833,['Longer'],choice-response,Longer,5fbc5590be36f3ba328bd883,300ms_delay_2_86,4997,116,maintaskTrials_2_l_reversekey
5f7d2e104bfca86e4f58ef9a,Group_JF,0,34b38b84b781d28751b6846057394c59330d43f01ffed5f43a8e0acfec1a3ea9,1666,FALSE,click,testresponse_s_J,2001,['Shorter'],choice-response,Longer,5fbc5590be36f3ba328bd883,300ms_delay_2_83,6171,117,maintaskTrials_2_s_reversekey
5f7d2e104bfca86e4f58ef9a,Group_JF,0,34b38b84b781d28751b6846057394c59330d43f01ffed5f43a8e0acfec1a3ea9,1666,TRUE,keypress,testresponse_s_J,116,['Shorter'],choice-response,Shorter,5fbc5590be36f3ba328bd883,300ms_delay_2_82,4268,118,maintaskTrials_2_s_reversekey
5f7d2e104bfca86e4f58ef9a,Group_JF,0,34b38b84b781d28751b6846057394c59330d43f01ffed5f43a8e0acfec1a3ea9,1666,TRUE,keypress,testresponse_s_J,22,['Shorter'],choice-response,Shorter,5fbc5590be36f3ba328bd883,300ms_delay_2_93,4255,119,maintaskTrials_2_s_reversekey
5f7d2e104bfca86e4f58ef9a,Group_JF,0,34b38b84b781d28751b6846057394c59330d43f01ffed5f43a8e0acfec1a3ea9,1666,TRUE,keypress,testresponse_s_J,17,['Shorter'],choice-response,Shorter,5fbc5590be36f3ba328bd883,300ms_delay_2_81,4167,120,maintaskTrials_2_s_reversekey
5f7d2e104bfca86e4f58ef9a,Group_JF,0,34b38b84b781d28751b6846057394c59330d43f01ffed5f43a8e0acfec1a3ea9,1666,TRUE,keypress,testresponse_s_J,57,['Shorter'],choice-response,Shorter,5fbc5590be36f3ba328bd883,300ms_delay_2_52,4070,121,maintaskTrials_2_s_reversekey
5f7d2e104bfca86e4f58ef9a,Group_JF,0,34b38b84b781d28751b6846057394c59330d43f01ffed5f43a8e0acfec1a3ea9,1666,TRUE,keypress,testresponse_s_J,36,['Shorter'],choice-response,Shorter,5fbc5590be36f3ba328bd883,300ms_delay_2_51,4070,122,maintaskTrials_2_s_reversekey
5f7d2e104bfca86e4f58ef9a,Group_JF,0,34b38b84b781d28751b6846057394c59330d43f01ffed5f43a8e0acfec1a3ea9,1666,FALSE,keypress,testresponse_l_F,5,['Longer'],choice-response,Shorter,5fbc5590be36f3ba328bd883,300ms_delay_2_54,4060,123,maintaskTrials_2_l_reversekey
5f7d2e104bfca86e4f58ef9a,Group_JF,0,34b38b84b781d28751b6846057394c59330d43f01ffed5f43a8e0acfec1a3ea9,1666,TRUE,keypress,testresponse_l_F,8520,['Longer'],choice-response,Longer,5fbc5590be36f3ba328bd883,300ms_delay_2_96,12777,124,maintaskTrials_2_l_reversekey
5f7d2e104bfca86e4f58ef9a,Group_JF,0,34b38b84b781d28751b6846057394c59330d43f01ffed5f43a8e0acfec1a3ea9,1666,TRUE,keypress,testresponse_l_F,2799,['Longer'],choice-response,Longer,5fbc5590be36f3ba328bd883,300ms_delay_2_85,6955,125,maintaskTrials_2_l_reversekey
5f7d2e104bfca86e4f58ef9a,Group_JF,0,34b38b84b781d28751b6846057394c59330d43f01ffed5f43a8e0acfec1a3ea9,1666,TRUE,keypress,testresponse_l_F,24,['Longer'],choice-response,Longer,5fbc5590be36f3ba328bd883,300ms_delay_2_84,4278,126,maintaskTrials_2_l_reversekey
5f7d2e104bfca86e4f58ef9a,Group_JF,0,34b38b84b781d28751b6846057394c59330d43f01ffed5f43a8e0acfec1a3ea9,1666,TRUE,keypress,testresponse_s_J,32,['Shorter'],choice-response,Shorter,5fbc5590be36f3ba328bd883,300ms_delay_2_92,4400,127,maintaskTrials_2_s_reversekey
5f7d2e104bfca86e4f58ef9a,Group_JF,0,34b38b84b781d28751b6846057394c59330d43f01ffed5f43a8e0acfec1a3ea9,1666,TRUE,keypress,testresponse_s_J,30,['Shorter'],choice-response,Shorter,5fbc5590be36f3ba328bd883,300ms_delay_2_93,4279,128,maintaskTrials_2_s_reversekey
5f7d2e104bfca86e4f58ef9a,Group_JF,0,34b38b84b781d28751b6846057394c59330d43f01ffed5f43a8e0acfec1a3ea9,1666,TRUE,keypress,testresponse_l_F,30,['Longer'],choice-response,Longer,5fbc5590be36f3ba328bd883,300ms_delay_2_84,4204,129,maintaskTrials_2_l_reversekey
5f7d2e104bfca86e4f58ef9a,Group_JF,0,34b38b84b781d28751b6846057394c59330d43f01ffed5f43a8e0acfec1a3ea9,1666,FALSE,keypress,testresponse_l_F,19,['Longer'],choice-response,Shorter,5fbc5590be36f3ba328bd883,300ms_delay_2_95,4580,130,maintaskTrials_2_l_reversekey
5f7d2e104bfca86e4f58ef9a,Group_JF,0,34b38b84b781d28751b6846057394c59330d43f01ffed5f43a8e0acfec1a3ea9,1666,TRUE,keypress,testresponse_l_F,179,['Longer'],choice-response,Longer,5fbc5590be36f3ba328bd883,300ms_delay_2_55,4187,131,maintaskTrials_2_l_reversekey
5f7d2e104bfca86e4f58ef9a,Group_JF,0,34b38b84b781d28751b6846057394c59330d43f01ffed5f43a8e0acfec1a3ea9,1666,TRUE,keypress,testresponse_s_J,1416,['Shorter'],choice-response,Shorter,5fbc5590be36f3ba328bd883,300ms_delay_2_91,5549,132,maintaskTrials_2_s_reversekey
5f7d2e104bfca86e4f58ef9a,Group_JF,0,34b38b84b781d28751b6846057394c59330d43f01ffed5f43a8e0acfec1a3ea9,1666,FALSE,keypress,testresponse_l_F,20,['Longer'],choice-response,Shorter,5fbc5590be36f3ba328bd883,300ms_delay_2_56,3910,133,maintaskTrials_2_l_reversekey
5f7d2e104bfca86e4f58ef9a,Group_JF,0,34b38b84b781d28751b6846057394c59330d43f01ffed5f43a8e0acfec1a3ea9,1666,FALSE,keypress,testresponse_l_F,23,['Longer'],choice-response,Shorter,5fbc5590be36f3ba328bd883,300ms_delay_2_54,4084,134,maintaskTrials_2_l_reversekey
5f7d2e104bfca86e4f58ef9a,Group_JF,0,34b38b84b781d28751b6846057394c59330d43f01ffed5f43a8e0acfec1a3ea9,1666,TRUE,keypress,testresponse_s_J,27,['Shorter'],choice-response,Shorter,5fbc5590be36f3ba328bd883,300ms_delay_2_81,4154,135,maintaskTrials_2_s_reversekey
5f7d2e104bfca86e4f58ef9a,Group_JF,0,34b38b84b781d28751b6846057394c59330d43f01ffed5f43a8e0acfec1a3ea9,1666,TRUE,keypress,testresponse_s_J,5,['Shorter'],choice-response,Shorter,5fbc5590be36f3ba328bd883,300ms_delay_2_51,4028,136,maintaskTrials_2_s_reversekey
5f7d2e104bfca86e4f58ef9a,Group_JF,0,34b38b84b781d28751b6846057394c59330d43f01ffed5f43a8e0acfec1a3ea9,1666,TRUE,keypress,testresponse_s_J,22,['Shorter'],choice-response,Shorter,5fbc5590be36f3ba328bd883,300ms_delay_2_52,4020,137,maintaskTrials_2_s_reversekey
5f7d2e104bfca86e4f58ef9a,Group_JF,0,34b38b84b781d28751b6846057394c59330d43f01ffed5f43a8e0acfec1a3ea9,1666,TRUE,keypress,testresponse_l_F,24,['Longer'],choice-response,Longer,5fbc5590be36f3ba328bd883,300ms_delay_2_86,4113,138,maintaskTrials_2_l_reversekey
5f7d2e104bfca86e4f58ef9a,Group_JF,0,34b38b84b781d28751b6846057394c59330d43f01ffed5f43a8e0acfec1a3ea9,1666,FALSE,keypress,testresponse_s_J,150,['Shorter'],choice-response,Longer,5fbc5590be36f3ba328bd883,300ms_delay_2_83,4292,139,maintaskTrials_2_s_reversekey
5f7d2e104bfca86e4f58ef9a,Group_JF,0,34b38b84b781d28751b6846057394c59330d43f01ffed5f43a8e0acfec1a3ea9,1666,TRUE,keypress,testresponse_s_J,513,['Shorter'],choice-response,Shorter,5fbc5590be36f3ba328bd883,300ms_delay_2_82,4582,140,maintaskTrials_2_s_reversekey
5f7d2e104bfca86e4f58ef9a,Group_JF,0,34b38b84b781d28751b6846057394c59330d43f01ffed5f43a8e0acfec1a3ea9,1666,TRUE,keypress,testresponse_s_J,88,['Shorter'],choice-response,Shorter,5fbc5590be36f3ba328bd883,300ms_delay_2_53,4161,141,maintaskTrials_2_s_reversekey
5f7d2e104bfca86e4f58ef9a,Group_JF,0,34b38b84b781d28751b6846057394c59330d43f01ffed5f43a8e0acfec1a3ea9,1666,FALSE,keypress,testresponse_l_F,711,['Longer'],choice-response,Shorter,5fbc5590be36f3ba328bd883,300ms_delay_2_94,4967,142,maintaskTrials_2_l_reversekey
5f7d2e104bfca86e4f58ef9a,Group_JF,0,34b38b84b781d28751b6846057394c59330d43f01ffed5f43a8e0acfec1a3ea9,1666,TRUE,keypress,testresponse_l_F,168,['Longer'],choice-response,Longer,5fbc5590be36f3ba328bd883,300ms_delay_2_96,4444,143,maintaskTrials_2_l_reversekey
5f7d2e104bfca86e4f58ef9a,Group_JF,0,34b38b84b781d28751b6846057394c59330d43f01ffed5f43a8e0acfec1a3ea9,1666,FALSE,keypress,testresponse_l_F,574,['Longer'],choice-response,Shorter,5fbc5590be36f3ba328bd883,300ms_delay_2_85,4669,144,maintaskTrials_2_l_reversekey
5f7d2e104bfca86e4f58ef9a,Group_JF,0,34b38b84b781d28751b6846057394c59330d43f01ffed5f43a8e0acfec1a3ea9,1666,FALSE,keypress,testresponse_l_F,124,['Longer'],choice-response,Shorter,5fbc5590be36f3ba328bd883,300ms_delay_2_55,4221,145,maintaskTrials_2_l_reversekey
5f7d2e104bfca86e4f58ef9a,Group_JF,0,34b38b84b781d28751b6846057394c59330d43f01ffed5f43a8e0acfec1a3ea9,1666,FALSE,keypress,testresponse_s_J,303,['Shorter'],choice-response,Longer,5fbc5590be36f3ba328bd883,300ms_delay_2_51,4253,146,maintaskTrials_2_s_reversekey
5f7d2e104bfca86e4f58ef9a,Group_JF,0,34b38b84b781d28751b6846057394c59330d43f01ffed5f43a8e0acfec1a3ea9,1666,TRUE,keypress,testresponse_s_J,316,['Shorter'],choice-response,Shorter,5fbc5590be36f3ba328bd883,300ms_delay_2_52,4362,147,maintaskTrials_2_s_reversekey
5f7d2e104bfca86e4f58ef9a,Group_JF,0,34b38b84b781d28751b6846057394c59330d43f01ffed5f43a8e0acfec1a3ea9,1666,TRUE,keypress,testresponse_l_F,169,['Longer'],choice-response,Longer,5fbc5590be36f3ba328bd883,300ms_delay_2_95,4335,148,maintaskTrials_2_l_reversekey
5f7d2e104bfca86e4f58ef9a,Group_JF,0,34b38b84b781d28751b6846057394c59330d43f01ffed5f43a8e0acfec1a3ea9,1666,FALSE,keypress,testresponse_s_J,47,['Shorter'],choice-response,Longer,5fbc5590be36f3ba328bd883,300ms_delay_2_81,4189,149,maintaskTrials_2_s_reversekey
5f7d2e104bfca86e4f58ef9a,Group_JF,0,34b38b84b781d28751b6846057394c59330d43f01ffed5f43a8e0acfec1a3ea9,1666,TRUE,keypress,testresponse_l_F,254,['Longer'],choice-response,Longer,5fbc5590be36f3ba328bd883,300ms_delay_2_56,4298,150,maintaskTrials_2_l_reversekey
5f7d2e104bfca86e4f58ef9a,Group_JF,0,34b38b84b781d28751b6846057394c59330d43f01ffed5f43a8e0acfec1a3ea9,1666,FALSE,keypress,testresponse_l_F,731,['Longer'],choice-response,Shorter,5fbc5590be36f3ba328bd883,300ms_delay_2_85,4846,151,maintaskTrials_2_l_reversekey
5f7d2e104bfca86e4f58ef9a,Group_JF,0,34b38b84b781d28751b6846057394c59330d43f01ffed5f43a8e0acfec1a3ea9,1666,FALSE,keypress,testresponse_s_J,6382,['Shorter'],choice-response,Longer,5fbc5590be36f3ba328bd883,300ms_delay_2_91,10614,152,maintaskTrials_2_s_reversekey
5f7d2e104bfca86e4f58ef9a,Group_JF,0,34b38b84b781d28751b6846057394c59330d43f01ffed5f43a8e0acfec1a3ea9,1666,FALSE,keypress,testresponse_s_J,1217,['Shorter'],choice-response,Longer,5fbc5590be36f3ba328bd883,300ms_delay_2_93,5618,153,maintaskTrials_2_s_reversekey
5f7d2e104bfca86e4f58ef9a,Group_JF,0,34b38b84b781d28751b6846057394c59330d43f01ffed5f43a8e0acfec1a3ea9,1666,FALSE,keypress,testresponse_l_F,6679,['Longer'],choice-response,Shorter,5fbc5590be36f3ba328bd883,300ms_delay_2_84,10972,154,maintaskTrials_2_l_reversekey
5f7d2e104bfca86e4f58ef9a,Group_JF,0,34b38b84b781d28751b6846057394c59330d43f01ffed5f43a8e0acfec1a3ea9,1666,FALSE,keypress,testresponse_l_F,1363,['Longer'],choice-response,Shorter,5fbc5590be36f3ba328bd883,300ms_delay_2_86,5823,155,maintaskTrials_2_l_reversekey
5f7d2e104bfca86e4f58ef9a,Group_JF,0,34b38b84b781d28751b6846057394c59330d43f01ffed5f43a8e0acfec1a3ea9,1666,FALSE,keypress,testresponse_l_F,469,['Longer'],choice-response,Shorter,5fbc5590be36f3ba328bd883,300ms_delay_2_54,4543,156,maintaskTrials_2_l_reversekey
5f7d2e104bfca86e4f58ef9a,Group_JF,0,34b38b84b781d28751b6846057394c59330d43f01ffed5f43a8e0acfec1a3ea9,1666,TRUE,keypress,testresponse_s_J,415,['Shorter'],choice-response,Shorter,5fbc5590be36f3ba328bd883,300ms_delay_2_82,4549,157,maintaskTrials_2_s_reversekey
5f7d2e104bfca86e4f58ef9a,Group_JF,0,34b38b84b781d28751b6846057394c59330d43f01ffed5f43a8e0acfec1a3ea9,1666,FALSE,keypress,testresponse_s_J,3114,['Shorter'],choice-response,Longer,5fbc5590be36f3ba328bd883,300ms_delay_2_53,7166,158,maintaskTrials_2_s_reversekey
