,expt_id,group_id,network_error_repeat,participant_id,participation_duration,response_correct,response_mode,response_name,response_rt,response_target,response_type,response_value,session_id,stimuli_presented,trial_duration,trial_num,trial_template,task,sub_id,Correct,Shorter,main_task_easiest_pass,onset,delay,comparison,order,key
0,5f7d2e104bfca86e4f58ef9a,Group_JF,0,34b38b84b781d28751b6846057394c59330d43f01ffed5f43a8e0acfec1a3ea9,1666,True,keypress,testresponse_s_J,247,['Shorter'],choice-response,Shorter,5fbc5590be36f3ba328bd883,300ms_delay_2_83,4283,19,maintaskTrials_2_s_reversekey,maintaskTrials,34b38,1,1,True,8,2,3,JF,Group
1,5f7d2e104bfca86e4f58ef9a,Group_JF,0,34b38b84b781d28751b6846057394c59330d43f01ffed5f43a8e0acfec1a3ea9,1666,True,keypress,testresponse_l_F,461,['Longer'],choice-response,Longer,5fbc5590be36f3ba328bd883,300ms_delay_2_94,4665,20,maintaskTrials_2_l_reversekey,maintaskTrials,34b38,1,0,True,9,2,4,JF,Group
2,5f7d2e104bfca86e4f58ef9a,Group_JF,0,34b38b84b781d28751b6846057394c59330d43f01ffed5f43a8e0acfec1a3ea9,1666,False,keypress,testresponse_s_J,778,['Shorter'],choice-response,Longer,5fbc5590be36f3ba328bd883,300ms_delay_2_91,5018,21,maintaskTrials_2_s_reversekey,maintaskTrials,34b38,0,0,True,9,2,1,JF,Group
3,5f7d2e104bfca86e4f58ef9a,Group_JF,0,34b38b84b781d28751b6846057394c59330d43f01ffed5f43a8e0acfec1a3ea9,1666,False,keypress,testresponse_l_F,536,['Longer'],choice-response,Shorter,5fbc5590be36f3ba328bd883,300ms_delay_2_54,4570,22,maintaskTrials_2_l_reversekey,maintaskTrials,34b38,0,1,True,5,2,4,JF,Group
4,5f7d2e104bfca86e4f58ef9a,Group_JF,0,34b38b84b781d28751b6846057394c59330d43f01ffed5f43a8e0acfec1a3ea9,1666,False,keypress,testresponse_s_J,1363,['Shorter'],choice-response,Longer,5fbc5590be36f3ba328bd883,300ms_delay_2_81,5480,23,maintaskTrials_2_s_reversekey,maintaskTrials,34b38,0,0,True,8,2,1,JF,Group
5,5f7d2e104bfca86e4f58ef9a,Group_JF,0,34b38b84b781d28751b6846057394c59330d43f01ffed5f43a8e0acfec1a3ea9,1666,True,keypress,testresponse_l_F,954,['Longer'],choice-response,Longer,5fbc5590be36f3ba328bd883,300ms_delay_2_85,5070,24,maintaskTrials_2_l_reversekey,maintaskTrials,34b38,1,0,True,8,2,5,JF,Group
6,5f7d2e104bfca86e4f58ef9a,Group_JF,0,34b38b84b781d28751b6846057394c59330d43f01ffed5f43a8e0acfec1a3ea9,1666,False,keypress,testresponse_l_F,276,['Longer'],choice-response,Shorter,5fbc5590be36f3ba328bd883,300ms_delay_2_55,4376,25,maintaskTrials_2_l_reversekey,maintaskTrials,34b38,0,1,True,5,2,5,JF,Group
7,5f7d2e104bfca86e4f58ef9a,Group_JF,0,34b38b84b781d28751b6846057394c59330d43f01ffed5f43a8e0acfec1a3ea9,1666,True,keypress,testresponse_l_F,955,['Longer'],choice-response,Longer,5fbc5590be36f3ba328bd883,300ms_delay_2_95,5160,26,maintaskTrials_2_l_reversekey,maintaskTrials,34b38,1,0,True,9,2,5,JF,Group
8,5f7d2e104bfca86e4f58ef9a,Group_JF,0,34b38b84b781d28751b6846057394c59330d43f01ffed5f43a8e0acfec1a3ea9,1666,False,keypress,testresponse_s_J,971,['Shorter'],choice-response,Longer,5fbc5590be36f3ba328bd883,300ms_delay_2_93,5160,27,maintaskTrials_2_s_reversekey,maintaskTrials,34b38,0,0,True,9,2,3,JF,Group
9,5f7d2e104bfca86e4f58ef9a,Group_JF,0,34b38b84b781d28751b6846057394c59330d43f01ffed5f43a8e0acfec1a3ea9,1666,True,keypress,testresponse_s_J,639,['Shorter'],choice-response,Shorter,5fbc5590be36f3ba328bd883,300ms_delay_2_51,4668,28,maintaskTrials_2_s_reversekey,maintaskTrials,34b38,1,1,True,5,2,1,JF,Group
10,5f7d2e104bfca86e4f58ef9a,Group_JF,0,34b38b84b781d28751b6846057394c59330d43f01ffed5f43a8e0acfec1a3ea9,1666,True,keypress,testresponse_l_F,605,['Longer'],choice-response,Longer,5fbc5590be36f3ba328bd883,300ms_delay_2_56,4698,29,maintaskTrials_2_l_reversekey,maintaskTrials,34b38,1,0,True,5,2,6,JF,Group
11,5f7d2e104bfca86e4f58ef9a,Group_JF,0,34b38b84b781d28751b6846057394c59330d43f01ffed5f43a8e0acfec1a3ea9,1666,True,keypress,testresponse_s_J,580,['Shorter'],choice-response,Shorter,5fbc5590be36f3ba328bd883,300ms_delay_2_92,4721,30,maintaskTrials_2_s_reversekey,maintaskTrials,34b38,1,1,True,9,2,2,JF,Group
12,5f7d2e104bfca86e4f58ef9a,Group_JF,0,34b38b84b781d28751b6846057394c59330d43f01ffed5f43a8e0acfec1a3ea9,1666,True,keypress,testresponse_l_F,661,['Longer'],choice-response,Longer,5fbc5590be36f3ba328bd883,300ms_delay_2_86,4831,31,maintaskTrials_2_l_reversekey,maintaskTrials,34b38,1,0,True,8,2,6,JF,Group
13,5f7d2e104bfca86e4f58ef9a,Group_JF,0,34b38b84b781d28751b6846057394c59330d43f01ffed5f43a8e0acfec1a3ea9,1666,True,keypress,testresponse_s_J,612,['Shorter'],choice-response,Shorter,5fbc5590be36f3ba328bd883,300ms_delay_2_53,4559,32,maintaskTrials_2_s_reversekey,maintaskTrials,34b38,1,1,True,5,2,3,JF,Group
14,5f7d2e104bfca86e4f58ef9a,Group_JF,0,34b38b84b781d28751b6846057394c59330d43f01ffed5f43a8e0acfec1a3ea9,1666,False,keypress,testresponse_s_J,1725,['Shorter'],choice-response,Longer,5fbc5590be36f3ba328bd883,300ms_delay_2_82,5809,33,maintaskTrials_2_s_reversekey,maintaskTrials,34b38,0,0,True,8,2,2,JF,Group
15,5f7d2e104bfca86e4f58ef9a,Group_JF,0,34b38b84b781d28751b6846057394c59330d43f01ffed5f43a8e0acfec1a3ea9,1666,True,keypress,testresponse_l_F,676,['Longer'],choice-response,Longer,5fbc5590be36f3ba328bd883,300ms_delay_2_96,4875,34,maintaskTrials_2_l_reversekey,maintaskTrials,34b38,1,0,True,9,2,6,JF,Group
16,5f7d2e104bfca86e4f58ef9a,Group_JF,0,34b38b84b781d28751b6846057394c59330d43f01ffed5f43a8e0acfec1a3ea9,1666,False,keypress,testresponse_l_F,761,['Longer'],choice-response,Shorter,5fbc5590be36f3ba328bd883,300ms_delay_2_84,4925,35,maintaskTrials_2_l_reversekey,maintaskTrials,34b38,0,1,True,8,2,4,JF,Group
17,5f7d2e104bfca86e4f58ef9a,Group_JF,0,34b38b84b781d28751b6846057394c59330d43f01ffed5f43a8e0acfec1a3ea9,1666,True,keypress,testresponse_s_J,1670,['Shorter'],choice-response,Shorter,5fbc5590be36f3ba328bd883,300ms_delay_2_52,5729,36,maintaskTrials_2_s_reversekey,maintaskTrials,34b38,1,1,True,5,2,2,JF,Group
18,5f7d2e104bfca86e4f58ef9a,Group_JF,0,34b38b84b781d28751b6846057394c59330d43f01ffed5f43a8e0acfec1a3ea9,1666,False,keypress,testresponse_s_J,544,['Shorter'],choice-response,Longer,5fbc5590be36f3ba328bd883,300ms_delay_2_91,4718,37,maintaskTrials_2_s_reversekey,maintaskTrials,34b38,0,0,True,9,2,1,JF,Group
19,5f7d2e104bfca86e4f58ef9a,Group_JF,0,34b38b84b781d28751b6846057394c59330d43f01ffed5f43a8e0acfec1a3ea9,1666,True,keypress,testresponse_s_J,244,['Shorter'],choice-response,Shorter,5fbc5590be36f3ba328bd883,300ms_delay_2_83,4404,38,maintaskTrials_2_s_reversekey,maintaskTrials,34b38,1,1,True,8,2,3,JF,Group
20,5f7d2e104bfca86e4f58ef9a,Group_JF,0,34b38b84b781d28751b6846057394c59330d43f01ffed5f43a8e0acfec1a3ea9,1666,True,keypress,testresponse_l_F,272,['Longer'],choice-response,Longer,5fbc5590be36f3ba328bd883,300ms_delay_2_85,4365,39,maintaskTrials_2_l_reversekey,maintaskTrials,34b38,1,0,True,8,2,5,JF,Group
21,5f7d2e104bfca86e4f58ef9a,Group_JF,0,34b38b84b781d28751b6846057394c59330d43f01ffed5f43a8e0acfec1a3ea9,1666,True,keypress,testresponse_s_J,364,['Shorter'],choice-response,Shorter,5fbc5590be36f3ba328bd883,300ms_delay_2_53,4440,40,maintaskTrials_2_s_reversekey,maintaskTrials,34b38,1,1,True,5,2,3,JF,Group
22,5f7d2e104bfca86e4f58ef9a,Group_JF,0,34b38b84b781d28751b6846057394c59330d43f01ffed5f43a8e0acfec1a3ea9,1666,False,keypress,testresponse_l_F,558,['Longer'],choice-response,Shorter,5fbc5590be36f3ba328bd883,300ms_delay_2_56,4568,41,maintaskTrials_2_l_reversekey,maintaskTrials,34b38,0,1,True,5,2,6,JF,Group
23,5f7d2e104bfca86e4f58ef9a,Group_JF,0,34b38b84b781d28751b6846057394c59330d43f01ffed5f43a8e0acfec1a3ea9,1666,False,keypress,testresponse_s_J,508,['Shorter'],choice-response,Longer,5fbc5590be36f3ba328bd883,300ms_delay_2_92,4724,42,maintaskTrials_2_s_reversekey,maintaskTrials,34b38,0,0,True,9,2,2,JF,Group
24,5f7d2e104bfca86e4f58ef9a,Group_JF,0,34b38b84b781d28751b6846057394c59330d43f01ffed5f43a8e0acfec1a3ea9,1666,False,keypress,testresponse_s_J,557,['Shorter'],choice-response,Longer,5fbc5590be36f3ba328bd883,300ms_delay_2_93,4788,43,maintaskTrials_2_s_reversekey,maintaskTrials,34b38,0,0,True,9,2,3,JF,Group
25,5f7d2e104bfca86e4f58ef9a,Group_JF,0,34b38b84b781d28751b6846057394c59330d43f01ffed5f43a8e0acfec1a3ea9,1666,True,keypress,testresponse_l_F,792,['Longer'],choice-response,Longer,5fbc5590be36f3ba328bd883,300ms_delay_2_84,5032,44,maintaskTrials_2_l_reversekey,maintaskTrials,34b38,1,0,True,8,2,4,JF,Group
26,5f7d2e104bfca86e4f58ef9a,Group_JF,0,34b38b84b781d28751b6846057394c59330d43f01ffed5f43a8e0acfec1a3ea9,1666,False,keypress,testresponse_s_J,368,['Shorter'],choice-response,Longer,5fbc5590be36f3ba328bd883,300ms_delay_2_82,4454,45,maintaskTrials_2_s_reversekey,maintaskTrials,34b38,0,0,True,8,2,2,JF,Group
27,5f7d2e104bfca86e4f58ef9a,Group_JF,0,34b38b84b781d28751b6846057394c59330d43f01ffed5f43a8e0acfec1a3ea9,1666,True,keypress,testresponse_s_J,829,['Shorter'],choice-response,Shorter,5fbc5590be36f3ba328bd883,300ms_delay_2_51,4876,46,maintaskTrials_2_s_reversekey,maintaskTrials,34b38,1,1,True,5,2,1,JF,Group
28,5f7d2e104bfca86e4f58ef9a,Group_JF,0,34b38b84b781d28751b6846057394c59330d43f01ffed5f43a8e0acfec1a3ea9,1666,False,keypress,testresponse_l_F,282,['Longer'],choice-response,Shorter,5fbc5590be36f3ba328bd883,300ms_delay_2_54,4272,47,maintaskTrials_2_l_reversekey,maintaskTrials,34b38,0,1,True,5,2,4,JF,Group
29,5f7d2e104bfca86e4f58ef9a,Group_JF,0,34b38b84b781d28751b6846057394c59330d43f01ffed5f43a8e0acfec1a3ea9,1666,True,keypress,testresponse_l_F,284,['Longer'],choice-response,Longer,5fbc5590be36f3ba328bd883,300ms_delay_2_95,4534,48,maintaskTrials_2_l_reversekey,maintaskTrials,34b38,1,0,True,9,2,5,JF,Group
30,5f7d2e104bfca86e4f58ef9a,Group_JF,0,34b38b84b781d28751b6846057394c59330d43f01ffed5f43a8e0acfec1a3ea9,1666,True,keypress,testresponse_l_F,517,['Longer'],choice-response,Longer,5fbc5590be36f3ba328bd883,300ms_delay_2_96,4841,49,maintaskTrials_2_l_reversekey,maintaskTrials,34b38,1,0,True,9,2,6,JF,Group
31,5f7d2e104bfca86e4f58ef9a,Group_JF,0,34b38b84b781d28751b6846057394c59330d43f01ffed5f43a8e0acfec1a3ea9,1666,True,keypress,testresponse_s_J,70,['Shorter'],choice-response,Shorter,5fbc5590be36f3ba328bd883,300ms_delay_2_81,4110,50,maintaskTrials_2_s_reversekey,maintaskTrials,34b38,1,1,True,8,2,1,JF,Group
32,5f7d2e104bfca86e4f58ef9a,Group_JF,0,34b38b84b781d28751b6846057394c59330d43f01ffed5f43a8e0acfec1a3ea9,1666,True,keypress,testresponse_l_F,1333,['Longer'],choice-response,Longer,5fbc5590be36f3ba328bd883,300ms_delay_2_55,5422,51,maintaskTrials_2_l_reversekey,maintaskTrials,34b38,1,0,True,5,2,5,JF,Group
33,5f7d2e104bfca86e4f58ef9a,Group_JF,0,34b38b84b781d28751b6846057394c59330d43f01ffed5f43a8e0acfec1a3ea9,1666,True,keypress,testresponse_l_F,172,['Longer'],choice-response,Longer,5fbc5590be36f3ba328bd883,300ms_delay_2_86,4331,52,maintaskTrials_2_l_reversekey,maintaskTrials,34b38,1,0,True,8,2,6,JF,Group
34,5f7d2e104bfca86e4f58ef9a,Group_JF,0,34b38b84b781d28751b6846057394c59330d43f01ffed5f43a8e0acfec1a3ea9,1666,False,keypress,testresponse_l_F,453,['Longer'],choice-response,Shorter,5fbc5590be36f3ba328bd883,300ms_delay_2_94,4710,53,maintaskTrials_2_l_reversekey,maintaskTrials,34b38,0,1,True,9,2,4,JF,Group
35,5f7d2e104bfca86e4f58ef9a,Group_JF,0,34b38b84b781d28751b6846057394c59330d43f01ffed5f43a8e0acfec1a3ea9,1666,False,keypress,testresponse_s_J,1180,['Shorter'],choice-response,Longer,5fbc5590be36f3ba328bd883,300ms_delay_2_52,5115,54,maintaskTrials_2_s_reversekey,maintaskTrials,34b38,0,0,True,5,2,2,JF,Group
36,5f7d2e104bfca86e4f58ef9a,Group_JF,0,34b38b84b781d28751b6846057394c59330d43f01ffed5f43a8e0acfec1a3ea9,1666,False,keypress,testresponse_s_J,239,['Shorter'],choice-response,Longer,5fbc5590be36f3ba328bd883,300ms_delay_2_93,4462,55,maintaskTrials_2_s_reversekey,maintaskTrials,34b38,0,0,True,9,2,3,JF,Group
37,5f7d2e104bfca86e4f58ef9a,Group_JF,0,34b38b84b781d28751b6846057394c59330d43f01ffed5f43a8e0acfec1a3ea9,1666,False,keypress,testresponse_s_J,331,['Shorter'],choice-response,Longer,5fbc5590be36f3ba328bd883,300ms_delay_2_92,4513,56,maintaskTrials_2_s_reversekey,maintaskTrials,34b38,0,0,True,9,2,2,JF,Group
38,5f7d2e104bfca86e4f58ef9a,Group_JF,0,34b38b84b781d28751b6846057394c59330d43f01ffed5f43a8e0acfec1a3ea9,1666,False,keypress,testresponse_l_F,595,['Longer'],choice-response,Shorter,5fbc5590be36f3ba328bd883,300ms_delay_2_96,4890,57,maintaskTrials_2_l_reversekey,maintaskTrials,34b38,0,1,True,9,2,6,JF,Group
39,5f7d2e104bfca86e4f58ef9a,Group_JF,0,34b38b84b781d28751b6846057394c59330d43f01ffed5f43a8e0acfec1a3ea9,1666,True,keypress,testresponse_s_J,1336,['Shorter'],choice-response,Shorter,5fbc5590be36f3ba328bd883,300ms_delay_2_91,5576,58,maintaskTrials_2_s_reversekey,maintaskTrials,34b38,1,1,True,9,2,1,JF,Group
40,5f7d2e104bfca86e4f58ef9a,Group_JF,0,34b38b84b781d28751b6846057394c59330d43f01ffed5f43a8e0acfec1a3ea9,1666,False,keypress,testresponse_l_F,992,['Longer'],choice-response,Shorter,5fbc5590be36f3ba328bd883,300ms_delay_2_94,5260,59,maintaskTrials_2_l_reversekey,maintaskTrials,34b38,0,1,True,9,2,4,JF,Group
41,5f7d2e104bfca86e4f58ef9a,Group_JF,0,34b38b84b781d28751b6846057394c59330d43f01ffed5f43a8e0acfec1a3ea9,1666,False,keypress,testresponse_l_F,2144,['Longer'],choice-response,Shorter,5fbc5590be36f3ba328bd883,300ms_delay_2_95,6394,60,maintaskTrials_2_l_reversekey,maintaskTrials,34b38,0,1,True,9,2,5,JF,Group
42,5f7d2e104bfca86e4f58ef9a,Group_JF,0,34b38b84b781d28751b6846057394c59330d43f01ffed5f43a8e0acfec1a3ea9,1666,True,keypress,testresponse_l_F,1604,['Longer'],choice-response,Longer,5fbc5590be36f3ba328bd883,300ms_delay_2_85,5783,61,maintaskTrials_2_l_reversekey,maintaskTrials,34b38,1,0,True,8,2,5,JF,Group
43,5f7d2e104bfca86e4f58ef9a,Group_JF,0,34b38b84b781d28751b6846057394c59330d43f01ffed5f43a8e0acfec1a3ea9,1666,False,keypress,testresponse_l_F,3055,['Longer'],choice-response,Shorter,5fbc5590be36f3ba328bd883,300ms_delay_2_55,7076,62,maintaskTrials_2_l_reversekey,maintaskTrials,34b38,0,1,True,5,2,5,JF,Group
44,5f7d2e104bfca86e4f58ef9a,Group_JF,0,34b38b84b781d28751b6846057394c59330d43f01ffed5f43a8e0acfec1a3ea9,1666,True,keypress,testresponse_s_J,543,['Shorter'],choice-response,Shorter,5fbc5590be36f3ba328bd883,300ms_delay_2_53,4613,63,maintaskTrials_2_s_reversekey,maintaskTrials,34b38,1,1,True,5,2,3,JF,Group
45,5f7d2e104bfca86e4f58ef9a,Group_JF,0,34b38b84b781d28751b6846057394c59330d43f01ffed5f43a8e0acfec1a3ea9,1666,True,keypress,testresponse_s_J,55,['Shorter'],choice-response,Shorter,5fbc5590be36f3ba328bd883,300ms_delay_2_81,4174,64,maintaskTrials_2_s_reversekey,maintaskTrials,34b38,1,1,True,8,2,1,JF,Group
46,5f7d2e104bfca86e4f58ef9a,Group_JF,0,34b38b84b781d28751b6846057394c59330d43f01ffed5f43a8e0acfec1a3ea9,1666,True,keypress,testresponse_s_J,1173,['Shorter'],choice-response,Shorter,5fbc5590be36f3ba328bd883,300ms_delay_2_52,5138,65,maintaskTrials_2_s_reversekey,maintaskTrials,34b38,1,1,True,5,2,2,JF,Group
47,5f7d2e104bfca86e4f58ef9a,Group_JF,0,34b38b84b781d28751b6846057394c59330d43f01ffed5f43a8e0acfec1a3ea9,1666,True,keypress,testresponse_l_F,70,['Longer'],choice-response,Longer,5fbc5590be36f3ba328bd883,300ms_delay_2_54,4048,66,maintaskTrials_2_l_reversekey,maintaskTrials,34b38,1,0,True,5,2,4,JF,Group
48,5f7d2e104bfca86e4f58ef9a,Group_JF,0,34b38b84b781d28751b6846057394c59330d43f01ffed5f43a8e0acfec1a3ea9,1666,True,keypress,testresponse_l_F,169,['Longer'],choice-response,Longer,5fbc5590be36f3ba328bd883,300ms_delay_2_56,4184,67,maintaskTrials_2_l_reversekey,maintaskTrials,34b38,1,0,True,5,2,6,JF,Group
49,5f7d2e104bfca86e4f58ef9a,Group_JF,0,34b38b84b781d28751b6846057394c59330d43f01ffed5f43a8e0acfec1a3ea9,1666,False,keypress,testresponse_l_F,210,['Longer'],choice-response,Shorter,5fbc5590be36f3ba328bd883,300ms_delay_2_86,4329,68,maintaskTrials_2_l_reversekey,maintaskTrials,34b38,0,1,True,8,2,6,JF,Group
50,5f7d2e104bfca86e4f58ef9a,Group_JF,0,34b38b84b781d28751b6846057394c59330d43f01ffed5f43a8e0acfec1a3ea9,1666,False,keypress,testresponse_s_J,254,['Shorter'],choice-response,Longer,5fbc5590be36f3ba328bd883,300ms_delay_2_83,4328,69,maintaskTrials_2_s_reversekey,maintaskTrials,34b38,0,0,True,8,2,3,JF,Group
51,5f7d2e104bfca86e4f58ef9a,Group_JF,0,34b38b84b781d28751b6846057394c59330d43f01ffed5f43a8e0acfec1a3ea9,1666,True,keypress,testresponse_s_J,271,['Shorter'],choice-response,Shorter,5fbc5590be36f3ba328bd883,300ms_delay_2_51,4239,70,maintaskTrials_2_s_reversekey,maintaskTrials,34b38,1,1,True,5,2,1,JF,Group
52,5f7d2e104bfca86e4f58ef9a,Group_JF,0,34b38b84b781d28751b6846057394c59330d43f01ffed5f43a8e0acfec1a3ea9,1666,False,keypress,testresponse_l_F,271,['Longer'],choice-response,Shorter,5fbc5590be36f3ba328bd883,300ms_delay_2_84,4434,71,maintaskTrials_2_l_reversekey,maintaskTrials,34b38,0,1,True,8,2,4,JF,Group
53,5f7d2e104bfca86e4f58ef9a,Group_JF,0,34b38b84b781d28751b6846057394c59330d43f01ffed5f43a8e0acfec1a3ea9,1666,True,keypress,testresponse_s_J,337,['Shorter'],choice-response,Shorter,5fbc5590be36f3ba328bd883,300ms_delay_2_82,4375,72,maintaskTrials_2_s_reversekey,maintaskTrials,34b38,1,1,True,8,2,2,JF,Group
54,5f7d2e104bfca86e4f58ef9a,Group_JF,0,34b38b84b781d28751b6846057394c59330d43f01ffed5f43a8e0acfec1a3ea9,1666,True,keypress,testresponse_s_J,3782,['Shorter'],choice-response,Shorter,5fbc5590be36f3ba328bd883,300ms_delay_2_92,8006,73,maintaskTrials_2_s_reversekey,maintaskTrials,34b38,1,1,True,9,2,2,JF,Group
55,5f7d2e104bfca86e4f58ef9a,Group_JF,0,34b38b84b781d28751b6846057394c59330d43f01ffed5f43a8e0acfec1a3ea9,1666,False,keypress,testresponse_l_F,1234,['Longer'],choice-response,Shorter,5fbc5590be36f3ba328bd883,300ms_delay_2_54,5308,74,maintaskTrials_2_l_reversekey,maintaskTrials,34b38,0,1,True,5,2,4,JF,Group
56,5f7d2e104bfca86e4f58ef9a,Group_JF,0,34b38b84b781d28751b6846057394c59330d43f01ffed5f43a8e0acfec1a3ea9,1666,False,keypress,testresponse_l_F,1637,['Longer'],choice-response,Shorter,5fbc5590be36f3ba328bd883,300ms_delay_2_94,5864,75,maintaskTrials_2_l_reversekey,maintaskTrials,34b38,0,1,True,9,2,4,JF,Group
57,5f7d2e104bfca86e4f58ef9a,Group_JF,0,34b38b84b781d28751b6846057394c59330d43f01ffed5f43a8e0acfec1a3ea9,1666,False,keypress,testresponse_l_F,1203,['Longer'],choice-response,Shorter,5fbc5590be36f3ba328bd883,300ms_delay_2_96,5870,76,maintaskTrials_2_l_reversekey,maintaskTrials,34b38,0,1,True,9,2,6,JF,Group
58,5f7d2e104bfca86e4f58ef9a,Group_JF,0,34b38b84b781d28751b6846057394c59330d43f01ffed5f43a8e0acfec1a3ea9,1666,False,keypress,testresponse_l_F,1147,['Longer'],choice-response,Shorter,5fbc5590be36f3ba328bd883,300ms_delay_2_95,5420,77,maintaskTrials_2_l_reversekey,maintaskTrials,34b38,0,1,True,9,2,5,JF,Group
59,5f7d2e104bfca86e4f58ef9a,Group_JF,0,34b38b84b781d28751b6846057394c59330d43f01ffed5f43a8e0acfec1a3ea9,1666,True,keypress,testresponse_l_F,320,['Longer'],choice-response,Longer,5fbc5590be36f3ba328bd883,300ms_delay_2_86,4503,78,maintaskTrials_2_l_reversekey,maintaskTrials,34b38,1,0,True,8,2,6,JF,Group
60,5f7d2e104bfca86e4f58ef9a,Group_JF,0,34b38b84b781d28751b6846057394c59330d43f01ffed5f43a8e0acfec1a3ea9,1666,True,keypress,testresponse_s_J,728,['Shorter'],choice-response,Shorter,5fbc5590be36f3ba328bd883,300ms_delay_2_51,4781,79,maintaskTrials_2_s_reversekey,maintaskTrials,34b38,1,1,True,5,2,1,JF,Group
61,5f7d2e104bfca86e4f58ef9a,Group_JF,0,34b38b84b781d28751b6846057394c59330d43f01ffed5f43a8e0acfec1a3ea9,1666,True,keypress,testresponse_s_J,480,['Shorter'],choice-response,Shorter,5fbc5590be36f3ba328bd883,300ms_delay_2_52,4519,80,maintaskTrials_2_s_reversekey,maintaskTrials,34b38,1,1,True,5,2,2,JF,Group
62,5f7d2e104bfca86e4f58ef9a,Group_JF,0,34b38b84b781d28751b6846057394c59330d43f01ffed5f43a8e0acfec1a3ea9,1666,False,keypress,testresponse_s_J,352,['Shorter'],choice-response,Longer,5fbc5590be36f3ba328bd883,300ms_delay_2_82,4500,81,maintaskTrials_2_s_reversekey,maintaskTrials,34b38,0,0,True,8,2,2,JF,Group
63,5f7d2e104bfca86e4f58ef9a,Group_JF,0,34b38b84b781d28751b6846057394c59330d43f01ffed5f43a8e0acfec1a3ea9,1666,True,keypress,testresponse_s_J,767,['Shorter'],choice-response,Shorter,5fbc5590be36f3ba328bd883,300ms_delay_2_83,4925,82,maintaskTrials_2_s_reversekey,maintaskTrials,34b38,1,1,True,8,2,3,JF,Group
64,5f7d2e104bfca86e4f58ef9a,Group_JF,0,34b38b84b781d28751b6846057394c59330d43f01ffed5f43a8e0acfec1a3ea9,1666,True,keypress,testresponse_l_F,410,['Longer'],choice-response,Longer,5fbc5590be36f3ba328bd883,300ms_delay_2_84,4564,83,maintaskTrials_2_l_reversekey,maintaskTrials,34b38,1,0,True,8,2,4,JF,Group
65,5f7d2e104bfca86e4f58ef9a,Group_JF,0,34b38b84b781d28751b6846057394c59330d43f01ffed5f43a8e0acfec1a3ea9,1666,True,keypress,testresponse_s_J,1733,['Shorter'],choice-response,Shorter,5fbc5590be36f3ba328bd883,300ms_delay_2_81,5786,84,maintaskTrials_2_s_reversekey,maintaskTrials,34b38,1,1,True,8,2,1,JF,Group
66,5f7d2e104bfca86e4f58ef9a,Group_JF,0,34b38b84b781d28751b6846057394c59330d43f01ffed5f43a8e0acfec1a3ea9,1666,True,keypress,testresponse_s_J,2339,['Shorter'],choice-response,Shorter,5fbc5590be36f3ba328bd883,300ms_delay_2_93,6576,85,maintaskTrials_2_s_reversekey,maintaskTrials,34b38,1,1,True,9,2,3,JF,Group
67,5f7d2e104bfca86e4f58ef9a,Group_JF,0,34b38b84b781d28751b6846057394c59330d43f01ffed5f43a8e0acfec1a3ea9,1666,True,keypress,testresponse_l_F,227,['Longer'],choice-response,Longer,5fbc5590be36f3ba328bd883,300ms_delay_2_85,4411,86,maintaskTrials_2_l_reversekey,maintaskTrials,34b38,1,0,True,8,2,5,JF,Group
68,5f7d2e104bfca86e4f58ef9a,Group_JF,0,34b38b84b781d28751b6846057394c59330d43f01ffed5f43a8e0acfec1a3ea9,1666,True,keypress,testresponse_s_J,884,['Shorter'],choice-response,Shorter,5fbc5590be36f3ba328bd883,300ms_delay_2_53,4819,87,maintaskTrials_2_s_reversekey,maintaskTrials,34b38,1,1,True,5,2,3,JF,Group
69,5f7d2e104bfca86e4f58ef9a,Group_JF,0,34b38b84b781d28751b6846057394c59330d43f01ffed5f43a8e0acfec1a3ea9,1666,True,keypress,testresponse_s_J,2499,['Shorter'],choice-response,Shorter,5fbc5590be36f3ba328bd883,300ms_delay_2_91,6725,88,maintaskTrials_2_s_reversekey,maintaskTrials,34b38,1,1,True,9,2,1,JF,Group
70,5f7d2e104bfca86e4f58ef9a,Group_JF,0,34b38b84b781d28751b6846057394c59330d43f01ffed5f43a8e0acfec1a3ea9,1666,False,keypress,testresponse_l_F,101,['Longer'],choice-response,Shorter,5fbc5590be36f3ba328bd883,300ms_delay_2_56,4122,89,maintaskTrials_2_l_reversekey,maintaskTrials,34b38,0,1,True,5,2,6,JF,Group
71,5f7d2e104bfca86e4f58ef9a,Group_JF,0,34b38b84b781d28751b6846057394c59330d43f01ffed5f43a8e0acfec1a3ea9,1666,False,keypress,testresponse_l_F,55,['Longer'],choice-response,Shorter,5fbc5590be36f3ba328bd883,300ms_delay_2_55,4107,90,maintaskTrials_2_l_reversekey,maintaskTrials,34b38,0,1,True,5,2,5,JF,Group
72,5f7d2e104bfca86e4f58ef9a,Group_JF,0,34b38b84b781d28751b6846057394c59330d43f01ffed5f43a8e0acfec1a3ea9,1666,False,keypress,testresponse_l_F,250,['Longer'],choice-response,Shorter,5fbc5590be36f3ba328bd883,300ms_delay_2_85,4405,91,maintaskTrials_2_l_reversekey,maintaskTrials,34b38,0,1,True,8,2,5,JF,Group
73,5f7d2e104bfca86e4f58ef9a,Group_JF,0,34b38b84b781d28751b6846057394c59330d43f01ffed5f43a8e0acfec1a3ea9,1666,False,keypress,testresponse_l_F,260,['Longer'],choice-response,Shorter,5fbc5590be36f3ba328bd883,300ms_delay_2_96,4493,92,maintaskTrials_2_l_reversekey,maintaskTrials,34b38,0,1,True,9,2,6,JF,Group
74,5f7d2e104bfca86e4f58ef9a,Group_JF,0,34b38b84b781d28751b6846057394c59330d43f01ffed5f43a8e0acfec1a3ea9,1666,True,keypress,testresponse_s_J,194,['Shorter'],choice-response,Shorter,5fbc5590be36f3ba328bd883,300ms_delay_2_82,4295,93,maintaskTrials_2_s_reversekey,maintaskTrials,34b38,1,1,True,8,2,2,JF,Group
75,5f7d2e104bfca86e4f58ef9a,Group_JF,0,34b38b84b781d28751b6846057394c59330d43f01ffed5f43a8e0acfec1a3ea9,1666,False,keypress,testresponse_s_J,224,['Shorter'],choice-response,Longer,5fbc5590be36f3ba328bd883,300ms_delay_2_83,4351,94,maintaskTrials_2_s_reversekey,maintaskTrials,34b38,0,0,True,8,2,3,JF,Group
76,5f7d2e104bfca86e4f58ef9a,Group_JF,0,34b38b84b781d28751b6846057394c59330d43f01ffed5f43a8e0acfec1a3ea9,1666,False,keypress,testresponse_s_J,456,['Shorter'],choice-response,Longer,5fbc5590be36f3ba328bd883,300ms_delay_2_81,4583,95,maintaskTrials_2_s_reversekey,maintaskTrials,34b38,0,0,True,8,2,1,JF,Group
77,5f7d2e104bfca86e4f58ef9a,Group_JF,0,34b38b84b781d28751b6846057394c59330d43f01ffed5f43a8e0acfec1a3ea9,1666,True,keypress,testresponse_l_F,507,['Longer'],choice-response,Longer,5fbc5590be36f3ba328bd883,300ms_delay_2_54,4479,96,maintaskTrials_2_l_reversekey,maintaskTrials,34b38,1,0,True,5,2,4,JF,Group
78,5f7d2e104bfca86e4f58ef9a,Group_JF,0,34b38b84b781d28751b6846057394c59330d43f01ffed5f43a8e0acfec1a3ea9,1666,False,keypress,testresponse_l_F,819,['Longer'],choice-response,Shorter,5fbc5590be36f3ba328bd883,300ms_delay_2_95,4973,97,maintaskTrials_2_l_reversekey,maintaskTrials,34b38,0,1,True,9,2,5,JF,Group
79,5f7d2e104bfca86e4f58ef9a,Group_JF,0,34b38b84b781d28751b6846057394c59330d43f01ffed5f43a8e0acfec1a3ea9,1666,True,keypress,testresponse_s_J,579,['Shorter'],choice-response,Shorter,5fbc5590be36f3ba328bd883,300ms_delay_2_52,4660,98,maintaskTrials_2_s_reversekey,maintaskTrials,34b38,1,1,True,5,2,2,JF,Group
80,5f7d2e104bfca86e4f58ef9a,Group_JF,0,34b38b84b781d28751b6846057394c59330d43f01ffed5f43a8e0acfec1a3ea9,1666,True,keypress,testresponse_s_J,362,['Shorter'],choice-response,Shorter,5fbc5590be36f3ba328bd883,300ms_delay_2_51,4404,99,maintaskTrials_2_s_reversekey,maintaskTrials,34b38,1,1,True,5,2,1,JF,Group
81,5f7d2e104bfca86e4f58ef9a,Group_JF,0,34b38b84b781d28751b6846057394c59330d43f01ffed5f43a8e0acfec1a3ea9,1666,True,keypress,testresponse_s_J,670,['Shorter'],choice-response,Shorter,5fbc5590be36f3ba328bd883,300ms_delay_2_93,4900,100,maintaskTrials_2_s_reversekey,maintaskTrials,34b38,1,1,True,9,2,3,JF,Group
82,5f7d2e104bfca86e4f58ef9a,Group_JF,0,34b38b84b781d28751b6846057394c59330d43f01ffed5f43a8e0acfec1a3ea9,1666,False,keypress,testresponse_l_F,2864,['Longer'],choice-response,Shorter,5fbc5590be36f3ba328bd883,300ms_delay_2_55,6943,101,maintaskTrials_2_l_reversekey,maintaskTrials,34b38,0,1,True,5,2,5,JF,Group
83,5f7d2e104bfca86e4f58ef9a,Group_JF,0,34b38b84b781d28751b6846057394c59330d43f01ffed5f43a8e0acfec1a3ea9,1666,False,keypress,testresponse_s_J,1038,['Shorter'],choice-response,Longer,5fbc5590be36f3ba328bd883,300ms_delay_2_92,5176,102,maintaskTrials_2_s_reversekey,maintaskTrials,34b38,0,0,True,9,2,2,JF,Group
84,5f7d2e104bfca86e4f58ef9a,Group_JF,0,34b38b84b781d28751b6846057394c59330d43f01ffed5f43a8e0acfec1a3ea9,1666,True,keypress,testresponse_l_F,459,['Longer'],choice-response,Longer,5fbc5590be36f3ba328bd883,300ms_delay_2_86,4501,103,maintaskTrials_2_l_reversekey,maintaskTrials,34b38,1,0,True,8,2,6,JF,Group
85,5f7d2e104bfca86e4f58ef9a,Group_JF,0,34b38b84b781d28751b6846057394c59330d43f01ffed5f43a8e0acfec1a3ea9,1666,True,keypress,testresponse_l_F,412,['Longer'],choice-response,Longer,5fbc5590be36f3ba328bd883,300ms_delay_2_94,4681,104,maintaskTrials_2_l_reversekey,maintaskTrials,34b38,1,0,True,9,2,4,JF,Group
86,5f7d2e104bfca86e4f58ef9a,Group_JF,0,34b38b84b781d28751b6846057394c59330d43f01ffed5f43a8e0acfec1a3ea9,1666,True,keypress,testresponse_l_F,977,['Longer'],choice-response,Longer,5fbc5590be36f3ba328bd883,300ms_delay_2_84,5012,105,maintaskTrials_2_l_reversekey,maintaskTrials,34b38,1,0,True,8,2,4,JF,Group
87,5f7d2e104bfca86e4f58ef9a,Group_JF,0,34b38b84b781d28751b6846057394c59330d43f01ffed5f43a8e0acfec1a3ea9,1666,False,keypress,testresponse_s_J,197,['Shorter'],choice-response,Longer,5fbc5590be36f3ba328bd883,300ms_delay_2_53,4283,106,maintaskTrials_2_s_reversekey,maintaskTrials,34b38,0,0,True,5,2,3,JF,Group
88,5f7d2e104bfca86e4f58ef9a,Group_JF,0,34b38b84b781d28751b6846057394c59330d43f01ffed5f43a8e0acfec1a3ea9,1666,False,keypress,testresponse_s_J,4745,['Shorter'],choice-response,Longer,5fbc5590be36f3ba328bd883,300ms_delay_2_91,8974,107,maintaskTrials_2_s_reversekey,maintaskTrials,34b38,0,0,True,9,2,1,JF,Group
89,5f7d2e104bfca86e4f58ef9a,Group_JF,0,34b38b84b781d28751b6846057394c59330d43f01ffed5f43a8e0acfec1a3ea9,1666,True,keypress,testresponse_l_F,311,['Longer'],choice-response,Longer,5fbc5590be36f3ba328bd883,300ms_delay_2_56,4424,108,maintaskTrials_2_l_reversekey,maintaskTrials,34b38,1,0,True,5,2,6,JF,Group
90,5f7d2e104bfca86e4f58ef9a,Group_JF,0,34b38b84b781d28751b6846057394c59330d43f01ffed5f43a8e0acfec1a3ea9,1666,True,keypress,testresponse_l_F,1672,['Longer'],choice-response,Longer,5fbc5590be36f3ba328bd883,300ms_delay_2_95,5918,109,maintaskTrials_2_l_reversekey,maintaskTrials,34b38,1,0,True,9,2,5,JF,Group
91,5f7d2e104bfca86e4f58ef9a,Group_JF,0,34b38b84b781d28751b6846057394c59330d43f01ffed5f43a8e0acfec1a3ea9,1666,False,click,testresponse_s_J,2456,['Shorter'],choice-response,Longer,5fbc5590be36f3ba328bd883,300ms_delay_2_91,6532,110,maintaskTrials_2_s_reversekey,maintaskTrials,34b38,0,0,True,9,2,1,JF,Group
92,5f7d2e104bfca86e4f58ef9a,Group_JF,0,34b38b84b781d28751b6846057394c59330d43f01ffed5f43a8e0acfec1a3ea9,1666,True,click,testresponse_l_F,944,['Longer'],choice-response,Longer,5fbc5590be36f3ba328bd883,300ms_delay_2_94,5178,111,maintaskTrials_2_l_reversekey,maintaskTrials,34b38,1,0,True,9,2,4,JF,Group
93,5f7d2e104bfca86e4f58ef9a,Group_JF,0,34b38b84b781d28751b6846057394c59330d43f01ffed5f43a8e0acfec1a3ea9,1666,False,click,testresponse_l_F,1059,['Longer'],choice-response,Shorter,5fbc5590be36f3ba328bd883,300ms_delay_2_56,5034,112,maintaskTrials_2_l_reversekey,maintaskTrials,34b38,0,1,True,5,2,6,JF,Group
94,5f7d2e104bfca86e4f58ef9a,Group_JF,0,34b38b84b781d28751b6846057394c59330d43f01ffed5f43a8e0acfec1a3ea9,1666,False,click,testresponse_l_F,681,['Longer'],choice-response,Shorter,5fbc5590be36f3ba328bd883,300ms_delay_2_55,4930,113,maintaskTrials_2_l_reversekey,maintaskTrials,34b38,0,1,True,5,2,5,JF,Group
95,5f7d2e104bfca86e4f58ef9a,Group_JF,0,34b38b84b781d28751b6846057394c59330d43f01ffed5f43a8e0acfec1a3ea9,1666,True,click,testresponse_s_J,2157,['Shorter'],choice-response,Shorter,5fbc5590be36f3ba328bd883,300ms_delay_2_53,6139,114,maintaskTrials_2_s_reversekey,maintaskTrials,34b38,1,1,True,5,2,3,JF,Group
96,5f7d2e104bfca86e4f58ef9a,Group_JF,0,34b38b84b781d28751b6846057394c59330d43f01ffed5f43a8e0acfec1a3ea9,1666,False,click,testresponse_s_J,1041,['Shorter'],choice-response,Longer,5fbc5590be36f3ba328bd883,300ms_delay_2_92,5279,115,maintaskTrials_2_s_reversekey,maintaskTrials,34b38,0,0,True,9,2,2,JF,Group
97,5f7d2e104bfca86e4f58ef9a,Group_JF,0,34b38b84b781d28751b6846057394c59330d43f01ffed5f43a8e0acfec1a3ea9,1666,True,click,testresponse_l_F,833,['Longer'],choice-response,Longer,5fbc5590be36f3ba328bd883,300ms_delay_2_86,4997,116,maintaskTrials_2_l_reversekey,maintaskTrials,34b38,1,0,True,8,2,6,JF,Group
98,5f7d2e104bfca86e4f58ef9a,Group_JF,0,34b38b84b781d28751b6846057394c59330d43f01ffed5f43a8e0acfec1a3ea9,1666,False,click,testresponse_s_J,2001,['Shorter'],choice-response,Longer,5fbc5590be36f3ba328bd883,300ms_delay_2_83,6171,117,maintaskTrials_2_s_reversekey,maintaskTrials,34b38,0,0,True,8,2,3,JF,Group
99,5f7d2e104bfca86e4f58ef9a,Group_JF,0,34b38b84b781d28751b6846057394c59330d43f01ffed5f43a8e0acfec1a3ea9,1666,True,keypress,testresponse_s_J,116,['Shorter'],choice-response,Shorter,5fbc5590be36f3ba328bd883,300ms_delay_2_82,4268,118,maintaskTrials_2_s_reversekey,maintaskTrials,34b38,1,1,True,8,2,2,JF,Group
100,5f7d2e104bfca86e4f58ef9a,Group_JF,0,34b38b84b781d28751b6846057394c59330d43f01ffed5f43a8e0acfec1a3ea9,1666,True,keypress,testresponse_s_J,22,['Shorter'],choice-response,Shorter,5fbc5590be36f3ba328bd883,300ms_delay_2_93,4255,119,maintaskTrials_2_s_reversekey,maintaskTrials,34b38,1,1,True,9,2,3,JF,Group
101,5f7d2e104bfca86e4f58ef9a,Group_JF,0,34b38b84b781d28751b6846057394c59330d43f01ffed5f43a8e0acfec1a3ea9,1666,True,keypress,testresponse_s_J,17,['Shorter'],choice-response,Shorter,5fbc5590be36f3ba328bd883,300ms_delay_2_81,4167,120,maintaskTrials_2_s_reversekey,maintaskTrials,34b38,1,1,True,8,2,1,JF,Group
102,5f7d2e104bfca86e4f58ef9a,Group_JF,0,34b38b84b781d28751b6846057394c59330d43f01ffed5f43a8e0acfec1a3ea9,1666,True,keypress,testresponse_s_J,57,['Shorter'],choice-response,Shorter,5fbc5590be36f3ba328bd883,300ms_delay_2_52,4070,121,maintaskTrials_2_s_reversekey,maintaskTrials,34b38,1,1,True,5,2,2,JF,Group
103,5f7d2e104bfca86e4f58ef9a,Group_JF,0,34b38b84b781d28751b6846057394c59330d43f01ffed5f43a8e0acfec1a3ea9,1666,True,keypress,testresponse_s_J,36,['Shorter'],choice-response,Shorter,5fbc5590be36f3ba328bd883,300ms_delay_2_51,4070,122,maintaskTrials_2_s_reversekey,maintaskTrials,34b38,1,1,True,5,2,1,JF,Group
104,5f7d2e104bfca86e4f58ef9a,Group_JF,0,34b38b84b781d28751b6846057394c59330d43f01ffed5f43a8e0acfec1a3ea9,1666,False,keypress,testresponse_l_F,5,['Longer'],choice-response,Shorter,5fbc5590be36f3ba328bd883,300ms_delay_2_54,4060,123,maintaskTrials_2_l_reversekey,maintaskTrials,34b38,0,1,True,5,2,4,JF,Group
105,5f7d2e104bfca86e4f58ef9a,Group_JF,0,34b38b84b781d28751b6846057394c59330d43f01ffed5f43a8e0acfec1a3ea9,1666,True,keypress,testresponse_l_F,8520,['Longer'],choice-response,Longer,5fbc5590be36f3ba328bd883,300ms_delay_2_96,12777,124,maintaskTrials_2_l_reversekey,maintaskTrials,34b38,1,0,True,9,2,6,JF,Group
106,5f7d2e104bfca86e4f58ef9a,Group_JF,0,34b38b84b781d28751b6846057394c59330d43f01ffed5f43a8e0acfec1a3ea9,1666,True,keypress,testresponse_l_F,2799,['Longer'],choice-response,Longer,5fbc5590be36f3ba328bd883,300ms_delay_2_85,6955,125,maintaskTrials_2_l_reversekey,maintaskTrials,34b38,1,0,True,8,2,5,JF,Group
107,5f7d2e104bfca86e4f58ef9a,Group_JF,0,34b38b84b781d28751b6846057394c59330d43f01ffed5f43a8e0acfec1a3ea9,1666,True,keypress,testresponse_l_F,24,['Longer'],choice-response,Longer,5fbc5590be36f3ba328bd883,300ms_delay_2_84,4278,126,maintaskTrials_2_l_reversekey,maintaskTrials,34b38,1,0,True,8,2,4,JF,Group
108,5f7d2e104bfca86e4f58ef9a,Group_JF,0,34b38b84b781d28751b6846057394c59330d43f01ffed5f43a8e0acfec1a3ea9,1666,True,keypress,testresponse_s_J,32,['Shorter'],choice-response,Shorter,5fbc5590be36f3ba328bd883,300ms_delay_2_92,4400,127,maintaskTrials_2_s_reversekey,maintaskTrials,34b38,1,1,True,9,2,2,JF,Group
109,5f7d2e104bfca86e4f58ef9a,Group_JF,0,34b38b84b781d28751b6846057394c59330d43f01ffed5f43a8e0acfec1a3ea9,1666,True,keypress,testresponse_s_J,30,['Shorter'],choice-response,Shorter,5fbc5590be36f3ba328bd883,300ms_delay_2_93,4279,128,maintaskTrials_2_s_reversekey,maintaskTrials,34b38,1,1,True,9,2,3,JF,Group
110,5f7d2e104bfca86e4f58ef9a,Group_JF,0,34b38b84b781d28751b6846057394c59330d43f01ffed5f43a8e0acfec1a3ea9,1666,True,keypress,testresponse_l_F,30,['Longer'],choice-response,Longer,5fbc5590be36f3ba328bd883,300ms_delay_2_84,4204,129,maintaskTrials_2_l_reversekey,maintaskTrials,34b38,1,0,True,8,2,4,JF,Group
111,5f7d2e104bfca86e4f58ef9a,Group_JF,0,34b38b84b781d28751b6846057394c59330d43f01ffed5f43a8e0acfec1a3ea9,1666,False,keypress,testresponse_l_F,19,['Longer'],choice-response,Shorter,5fbc5590be36f3ba328bd883,300ms_delay_2_95,4580,130,maintaskTrials_2_l_reversekey,maintaskTrials,34b38,0,1,True,9,2,5,JF,Group
112,5f7d2e104bfca86e4f58ef9a,Group_JF,0,34b38b84b781d28751b6846057394c59330d43f01ffed5f43a8e0acfec1a3ea9,1666,True,keypress,testresponse_l_F,179,['Longer'],choice-response,Longer,5fbc5590be36f3ba328bd883,300ms_delay_2_55,4187,131,maintaskTrials_2_l_reversekey,maintaskTrials,34b38,1,0,True,5,2,5,JF,Group
113,5f7d2e104bfca86e4f58ef9a,Group_JF,0,34b38b84b781d28751b6846057394c59330d43f01ffed5f43a8e0acfec1a3ea9,1666,True,keypress,testresponse_s_J,1416,['Shorter'],choice-response,Shorter,5fbc5590be36f3ba328bd883,300ms_delay_2_91,5549,132,maintaskTrials_2_s_reversekey,maintaskTrials,34b38,1,1,True,9,2,1,JF,Group
114,5f7d2e104bfca86e4f58ef9a,Group_JF,0,34b38b84b781d28751b6846057394c59330d43f01ffed5f43a8e0acfec1a3ea9,1666,False,keypress,testresponse_l_F,20,['Longer'],choice-response,Shorter,5fbc5590be36f3ba328bd883,300ms_delay_2_56,3910,133,maintaskTrials_2_l_reversekey,maintaskTrials,34b38,0,1,True,5,2,6,JF,Group
115,5f7d2e104bfca86e4f58ef9a,Group_JF,0,34b38b84b781d28751b6846057394c59330d43f01ffed5f43a8e0acfec1a3ea9,1666,False,keypress,testresponse_l_F,23,['Longer'],choice-response,Shorter,5fbc5590be36f3ba328bd883,300ms_delay_2_54,4084,134,maintaskTrials_2_l_reversekey,maintaskTrials,34b38,0,1,True,5,2,4,JF,Group
116,5f7d2e104bfca86e4f58ef9a,Group_JF,0,34b38b84b781d28751b6846057394c59330d43f01ffed5f43a8e0acfec1a3ea9,1666,True,keypress,testresponse_s_J,27,['Shorter'],choice-response,Shorter,5fbc5590be36f3ba328bd883,300ms_delay_2_81,4154,135,maintaskTrials_2_s_reversekey,maintaskTrials,34b38,1,1,True,8,2,1,JF,Group
117,5f7d2e104bfca86e4f58ef9a,Group_JF,0,34b38b84b781d28751b6846057394c59330d43f01ffed5f43a8e0acfec1a3ea9,1666,True,keypress,testresponse_s_J,5,['Shorter'],choice-response,Shorter,5fbc5590be36f3ba328bd883,300ms_delay_2_51,4028,136,maintaskTrials_2_s_reversekey,maintaskTrials,34b38,1,1,True,5,2,1,JF,Group
118,5f7d2e104bfca86e4f58ef9a,Group_JF,0,34b38b84b781d28751b6846057394c59330d43f01ffed5f43a8e0acfec1a3ea9,1666,True,keypress,testresponse_s_J,22,['Shorter'],choice-response,Shorter,5fbc5590be36f3ba328bd883,300ms_delay_2_52,4020,137,maintaskTrials_2_s_reversekey,maintaskTrials,34b38,1,1,True,5,2,2,JF,Group
119,5f7d2e104bfca86e4f58ef9a,Group_JF,0,34b38b84b781d28751b6846057394c59330d43f01ffed5f43a8e0acfec1a3ea9,1666,True,keypress,testresponse_l_F,24,['Longer'],choice-response,Longer,5fbc5590be36f3ba328bd883,300ms_delay_2_86,4113,138,maintaskTrials_2_l_reversekey,maintaskTrials,34b38,1,0,True,8,2,6,JF,Group
120,5f7d2e104bfca86e4f58ef9a,Group_JF,0,34b38b84b781d28751b6846057394c59330d43f01ffed5f43a8e0acfec1a3ea9,1666,False,keypress,testresponse_s_J,150,['Shorter'],choice-response,Longer,5fbc5590be36f3ba328bd883,300ms_delay_2_83,4292,139,maintaskTrials_2_s_reversekey,maintaskTrials,34b38,0,0,True,8,2,3,JF,Group
121,5f7d2e104bfca86e4f58ef9a,Group_JF,0,34b38b84b781d28751b6846057394c59330d43f01ffed5f43a8e0acfec1a3ea9,1666,True,keypress,testresponse_s_J,513,['Shorter'],choice-response,Shorter,5fbc5590be36f3ba328bd883,300ms_delay_2_82,4582,140,maintaskTrials_2_s_reversekey,maintaskTrials,34b38,1,1,True,8,2,2,JF,Group
122,5f7d2e104bfca86e4f58ef9a,Group_JF,0,34b38b84b781d28751b6846057394c59330d43f01ffed5f43a8e0acfec1a3ea9,1666,True,keypress,testresponse_s_J,88,['Shorter'],choice-response,Shorter,5fbc5590be36f3ba328bd883,300ms_delay_2_53,4161,141,maintaskTrials_2_s_reversekey,maintaskTrials,34b38,1,1,True,5,2,3,JF,Group
123,5f7d2e104bfca86e4f58ef9a,Group_JF,0,34b38b84b781d28751b6846057394c59330d43f01ffed5f43a8e0acfec1a3ea9,1666,False,keypress,testresponse_l_F,711,['Longer'],choice-response,Shorter,5fbc5590be36f3ba328bd883,300ms_delay_2_94,4967,142,maintaskTrials_2_l_reversekey,maintaskTrials,34b38,0,1,True,9,2,4,JF,Group
124,5f7d2e104bfca86e4f58ef9a,Group_JF,0,34b38b84b781d28751b6846057394c59330d43f01ffed5f43a8e0acfec1a3ea9,1666,True,keypress,testresponse_l_F,168,['Longer'],choice-response,Longer,5fbc5590be36f3ba328bd883,300ms_delay_2_96,4444,143,maintaskTrials_2_l_reversekey,maintaskTrials,34b38,1,0,True,9,2,6,JF,Group
125,5f7d2e104bfca86e4f58ef9a,Group_JF,0,34b38b84b781d28751b6846057394c59330d43f01ffed5f43a8e0acfec1a3ea9,1666,False,keypress,testresponse_l_F,574,['Longer'],choice-response,Shorter,5fbc5590be36f3ba328bd883,300ms_delay_2_85,4669,144,maintaskTrials_2_l_reversekey,maintaskTrials,34b38,0,1,True,8,2,5,JF,Group
126,5f7d2e104bfca86e4f58ef9a,Group_JF,0,34b38b84b781d28751b6846057394c59330d43f01ffed5f43a8e0acfec1a3ea9,1666,False,keypress,testresponse_l_F,124,['Longer'],choice-response,Shorter,5fbc5590be36f3ba328bd883,300ms_delay_2_55,4221,145,maintaskTrials_2_l_reversekey,maintaskTrials,34b38,0,1,True,5,2,5,JF,Group
127,5f7d2e104bfca86e4f58ef9a,Group_JF,0,34b38b84b781d28751b6846057394c59330d43f01ffed5f43a8e0acfec1a3ea9,1666,False,keypress,testresponse_s_J,303,['Shorter'],choice-response,Longer,5fbc5590be36f3ba328bd883,300ms_delay_2_51,4253,146,maintaskTrials_2_s_reversekey,maintaskTrials,34b38,0,0,True,5,2,1,JF,Group
128,5f7d2e104bfca86e4f58ef9a,Group_JF,0,34b38b84b781d28751b6846057394c59330d43f01ffed5f43a8e0acfec1a3ea9,1666,True,keypress,testresponse_s_J,316,['Shorter'],choice-response,Shorter,5fbc5590be36f3ba328bd883,300ms_delay_2_52,4362,147,maintaskTrials_2_s_reversekey,maintaskTrials,34b38,1,1,True,5,2,2,JF,Group
129,5f7d2e104bfca86e4f58ef9a,Group_JF,0,34b38b84b781d28751b6846057394c59330d43f01ffed5f43a8e0acfec1a3ea9,1666,True,keypress,testresponse_l_F,169,['Longer'],choice-response,Longer,5fbc5590be36f3ba328bd883,300ms_delay_2_95,4335,148,maintaskTrials_2_l_reversekey,maintaskTrials,34b38,1,0,True,9,2,5,JF,Group
130,5f7d2e104bfca86e4f58ef9a,Group_JF,0,34b38b84b781d28751b6846057394c59330d43f01ffed5f43a8e0acfec1a3ea9,1666,False,keypress,testresponse_s_J,47,['Shorter'],choice-response,Longer,5fbc5590be36f3ba328bd883,300ms_delay_2_81,4189,149,maintaskTrials_2_s_reversekey,maintaskTrials,34b38,0,0,True,8,2,1,JF,Group
131,5f7d2e104bfca86e4f58ef9a,Group_JF,0,34b38b84b781d28751b6846057394c59330d43f01ffed5f43a8e0acfec1a3ea9,1666,True,keypress,testresponse_l_F,254,['Longer'],choice-response,Longer,5fbc5590be36f3ba328bd883,300ms_delay_2_56,4298,150,maintaskTrials_2_l_reversekey,maintaskTrials,34b38,1,0,True,5,2,6,JF,Group
132,5f7d2e104bfca86e4f58ef9a,Group_JF,0,34b38b84b781d28751b6846057394c59330d43f01ffed5f43a8e0acfec1a3ea9,1666,False,keypress,testresponse_l_F,731,['Longer'],choice-response,Shorter,5fbc5590be36f3ba328bd883,300ms_delay_2_85,4846,151,maintaskTrials_2_l_reversekey,maintaskTrials,34b38,0,1,True,8,2,5,JF,Group
133,5f7d2e104bfca86e4f58ef9a,Group_JF,0,34b38b84b781d28751b6846057394c59330d43f01ffed5f43a8e0acfec1a3ea9,1666,False,keypress,testresponse_s_J,6382,['Shorter'],choice-response,Longer,5fbc5590be36f3ba328bd883,300ms_delay_2_91,10614,152,maintaskTrials_2_s_reversekey,maintaskTrials,34b38,0,0,True,9,2,1,JF,Group
134,5f7d2e104bfca86e4f58ef9a,Group_JF,0,34b38b84b781d28751b6846057394c59330d43f01ffed5f43a8e0acfec1a3ea9,1666,False,keypress,testresponse_s_J,1217,['Shorter'],choice-response,Longer,5fbc5590be36f3ba328bd883,300ms_delay_2_93,5618,153,maintaskTrials_2_s_reversekey,maintaskTrials,34b38,0,0,True,9,2,3,JF,Group
135,5f7d2e104bfca86e4f58ef9a,Group_JF,0,34b38b84b781d28751b6846057394c59330d43f01ffed5f43a8e0acfec1a3ea9,1666,False,keypress,testresponse_l_F,6679,['Longer'],choice-response,Shorter,5fbc5590be36f3ba328bd883,300ms_delay_2_84,10972,154,maintaskTrials_2_l_reversekey,maintaskTrials,34b38,0,1,True,8,2,4,JF,Group
136,5f7d2e104bfca86e4f58ef9a,Group_JF,0,34b38b84b781d28751b6846057394c59330d43f01ffed5f43a8e0acfec1a3ea9,1666,False,keypress,testresponse_l_F,1363,['Longer'],choice-response,Shorter,5fbc5590be36f3ba328bd883,300ms_delay_2_86,5823,155,maintaskTrials_2_l_reversekey,maintaskTrials,34b38,0,1,True,8,2,6,JF,Group
137,5f7d2e104bfca86e4f58ef9a,Group_JF,0,34b38b84b781d28751b6846057394c59330d43f01ffed5f43a8e0acfec1a3ea9,1666,False,keypress,testresponse_l_F,469,['Longer'],choice-response,Shorter,5fbc5590be36f3ba328bd883,300ms_delay_2_54,4543,156,maintaskTrials_2_l_reversekey,maintaskTrials,34b38,0,1,True,5,2,4,JF,Group
138,5f7d2e104bfca86e4f58ef9a,Group_JF,0,34b38b84b781d28751b6846057394c59330d43f01ffed5f43a8e0acfec1a3ea9,1666,True,keypress,testresponse_s_J,415,['Shorter'],choice-response,Shorter,5fbc5590be36f3ba328bd883,300ms_delay_2_82,4549,157,maintaskTrials_2_s_reversekey,maintaskTrials,34b38,1,1,True,8,2,2,JF,Group
139,5f7d2e104bfca86e4f58ef9a,Group_JF,0,34b38b84b781d28751b6846057394c59330d43f01ffed5f43a8e0acfec1a3ea9,1666,False,keypress,testresponse_s_J,3114,['Shorter'],choice-response,Longer,5fbc5590be36f3ba328bd883,300ms_delay_2_53,7166,158,maintaskTrials_2_s_reversekey,maintaskTrials,34b38,0,0,True,5,2,3,JF,Group
140,5f7d2e104bfca86e4f58ef9a,Group_JF,0,34b38b84b781d28751b6846057394c59330d43f01ffed5f43a8e0acfec1a3ea9,1666,False,keypress,testresponse_l_F,296,['Longer'],choice-response,Shorter,5fbc5590be36f3ba328bd883,300ms_delay_2_96,4569,159,maintaskTrials_2_l_reversekey,maintaskTrials,34b38,0,1,True,9,2,6,JF,Group
141,5f7d2e104bfca86e4f58ef9a,Group_JF,0,34b38b84b781d28751b6846057394c59330d43f01ffed5f43a8e0acfec1a3ea9,1666,True,keypress,testresponse_s_J,68,['Shorter'],choice-response,Shorter,5fbc5590be36f3ba328bd883,300ms_delay_2_92,4163,160,maintaskTrials_2_s_reversekey,maintaskTrials,34b38,1,1,True,9,2,2,JF,Group
142,5f7d2e104bfca86e4f58ef9a,Group_JF,0,34b38b84b781d28751b6846057394c59330d43f01ffed5f43a8e0acfec1a3ea9,1666,False,keypress,testresponse_l_F,118,['Longer'],choice-response,Shorter,5fbc5590be36f3ba328bd883,300ms_delay_2_94,4375,161,maintaskTrials_2_l_reversekey,maintaskTrials,34b38,0,1,True,9,2,4,JF,Group
143,5f7d2e104bfca86e4f58ef9a,Group_JF,0,34b38b84b781d28751b6846057394c59330d43f01ffed5f43a8e0acfec1a3ea9,1666,True,keypress,testresponse_s_J,561,['Shorter'],choice-response,Shorter,5fbc5590be36f3ba328bd883,300ms_delay_2_83,4702,162,maintaskTrials_2_s_reversekey,maintaskTrials,34b38,1,1,True,8,2,3,JF,Group
144,5f7d2e104bfca86e4f58ef9a,Group_JF,0,34b38b84b781d28751b6846057394c59330d43f01ffed5f43a8e0acfec1a3ea9,1666,False,keypress,testresponse_l_F,453,['Longer'],choice-response,Shorter,5fbc5590be36f3ba328bd883,300ms_delay_2_86,4663,163,maintaskTrials_2_l_reversekey,maintaskTrials,34b38,0,1,True,8,2,6,JF,Group
145,5f7d2e104bfca86e4f58ef9a,Group_JF,0,34b38b84b781d28751b6846057394c59330d43f01ffed5f43a8e0acfec1a3ea9,1666,True,keypress,testresponse_s_J,148,['Shorter'],choice-response,Shorter,5fbc5590be36f3ba328bd883,300ms_delay_2_81,4198,164,maintaskTrials_2_s_reversekey,maintaskTrials,34b38,1,1,True,8,2,1,JF,Group
146,5f7d2e104bfca86e4f58ef9a,Group_JF,0,34b38b84b781d28751b6846057394c59330d43f01ffed5f43a8e0acfec1a3ea9,1666,True,keypress,testresponse_s_J,222,['Shorter'],choice-response,Shorter,5fbc5590be36f3ba328bd883,300ms_delay_2_53,4300,165,maintaskTrials_2_s_reversekey,maintaskTrials,34b38,1,1,True,5,2,3,JF,Group
147,5f7d2e104bfca86e4f58ef9a,Group_JF,0,34b38b84b781d28751b6846057394c59330d43f01ffed5f43a8e0acfec1a3ea9,1666,True,keypress,testresponse_s_J,205,['Shorter'],choice-response,Shorter,5fbc5590be36f3ba328bd883,300ms_delay_2_82,4311,166,maintaskTrials_2_s_reversekey,maintaskTrials,34b38,1,1,True,8,2,2,JF,Group
148,5f7d2e104bfca86e4f58ef9a,Group_JF,0,34b38b84b781d28751b6846057394c59330d43f01ffed5f43a8e0acfec1a3ea9,1666,False,keypress,testresponse_l_F,702,['Longer'],choice-response,Shorter,5fbc5590be36f3ba328bd883,300ms_delay_2_84,4882,167,maintaskTrials_2_l_reversekey,maintaskTrials,34b38,0,1,True,8,2,4,JF,Group
149,5f7d2e104bfca86e4f58ef9a,Group_JF,0,34b38b84b781d28751b6846057394c59330d43f01ffed5f43a8e0acfec1a3ea9,1666,False,keypress,testresponse_l_F,1141,['Longer'],choice-response,Shorter,5fbc5590be36f3ba328bd883,300ms_delay_2_95,5546,168,maintaskTrials_2_l_reversekey,maintaskTrials,34b38,0,1,True,9,2,5,JF,Group
150,5f7d2e104bfca86e4f58ef9a,Group_JF,0,34b38b84b781d28751b6846057394c59330d43f01ffed5f43a8e0acfec1a3ea9,1666,True,keypress,testresponse_s_J,1174,['Shorter'],choice-response,Shorter,5fbc5590be36f3ba328bd883,300ms_delay_2_92,5559,169,maintaskTrials_2_s_reversekey,maintaskTrials,34b38,1,1,True,9,2,2,JF,Group
151,5f7d2e104bfca86e4f58ef9a,Group_JF,0,34b38b84b781d28751b6846057394c59330d43f01ffed5f43a8e0acfec1a3ea9,1666,False,keypress,testresponse_s_J,82,['Shorter'],choice-response,Longer,5fbc5590be36f3ba328bd883,300ms_delay_2_51,4128,170,maintaskTrials_2_s_reversekey,maintaskTrials,34b38,0,0,True,5,2,1,JF,Group
152,5f7d2e104bfca86e4f58ef9a,Group_JF,0,34b38b84b781d28751b6846057394c59330d43f01ffed5f43a8e0acfec1a3ea9,1666,True,keypress,testresponse_l_F,1877,['Longer'],choice-response,Longer,5fbc5590be36f3ba328bd883,300ms_delay_2_56,5857,171,maintaskTrials_2_l_reversekey,maintaskTrials,34b38,1,0,True,5,2,6,JF,Group
153,5f7d2e104bfca86e4f58ef9a,Group_JF,0,34b38b84b781d28751b6846057394c59330d43f01ffed5f43a8e0acfec1a3ea9,1666,True,keypress,testresponse_s_J,997,['Shorter'],choice-response,Shorter,5fbc5590be36f3ba328bd883,300ms_delay_2_52,5281,172,maintaskTrials_2_s_reversekey,maintaskTrials,34b38,1,1,True,5,2,2,JF,Group
154,5f7d2e104bfca86e4f58ef9a,Group_JF,0,34b38b84b781d28751b6846057394c59330d43f01ffed5f43a8e0acfec1a3ea9,1666,False,keypress,testresponse_l_F,1197,['Longer'],choice-response,Shorter,5fbc5590be36f3ba328bd883,300ms_delay_2_94,5444,173,maintaskTrials_2_l_reversekey,maintaskTrials,34b38,0,1,True,9,2,4,JF,Group
155,5f7d2e104bfca86e4f58ef9a,Group_JF,0,34b38b84b781d28751b6846057394c59330d43f01ffed5f43a8e0acfec1a3ea9,1666,False,keypress,testresponse_l_F,1109,['Longer'],choice-response,Shorter,5fbc5590be36f3ba328bd883,300ms_delay_2_55,5174,174,maintaskTrials_2_l_reversekey,maintaskTrials,34b38,0,1,True,5,2,5,JF,Group
156,5f7d2e104bfca86e4f58ef9a,Group_JF,0,34b38b84b781d28751b6846057394c59330d43f01ffed5f43a8e0acfec1a3ea9,1666,True,keypress,testresponse_l_F,110,['Longer'],choice-response,Longer,5fbc5590be36f3ba328bd883,300ms_delay_2_85,4240,175,maintaskTrials_2_l_reversekey,maintaskTrials,34b38,1,0,True,8,2,5,JF,Group
157,5f7d2e104bfca86e4f58ef9a,Group_JF,0,34b38b84b781d28751b6846057394c59330d43f01ffed5f43a8e0acfec1a3ea9,1666,False,keypress,testresponse_l_F,126,['Longer'],choice-response,Shorter,5fbc5590be36f3ba328bd883,300ms_delay_2_96,4393,176,maintaskTrials_2_l_reversekey,maintaskTrials,34b38,0,1,True,9,2,6,JF,Group
158,5f7d2e104bfca86e4f58ef9a,Group_JF,0,34b38b84b781d28751b6846057394c59330d43f01ffed5f43a8e0acfec1a3ea9,1666,True,keypress,testresponse_s_J,1410,['Shorter'],choice-response,Shorter,5fbc5590be36f3ba328bd883,300ms_delay_2_83,5467,177,maintaskTrials_2_s_reversekey,maintaskTrials,34b38,1,1,True,8,2,3,JF,Group
159,5f7d2e104bfca86e4f58ef9a,Group_JF,0,34b38b84b781d28751b6846057394c59330d43f01ffed5f43a8e0acfec1a3ea9,1666,False,keypress,testresponse_l_F,2764,['Longer'],choice-response,Shorter,5fbc5590be36f3ba328bd883,300ms_delay_2_54,6842,178,maintaskTrials_2_l_reversekey,maintaskTrials,34b38,0,1,True,5,2,4,JF,Group
160,5f7d2e104bfca86e4f58ef9a,Group_JF,0,34b38b84b781d28751b6846057394c59330d43f01ffed5f43a8e0acfec1a3ea9,1666,True,keypress,testresponse_s_J,359,['Shorter'],choice-response,Shorter,5fbc5590be36f3ba328bd883,300ms_delay_2_93,4614,179,maintaskTrials_2_s_reversekey,maintaskTrials,34b38,1,1,True,9,2,3,JF,Group
161,5f7d2e104bfca86e4f58ef9a,Group_JF,0,34b38b84b781d28751b6846057394c59330d43f01ffed5f43a8e0acfec1a3ea9,1666,True,keypress,testresponse_s_J,1587,['Shorter'],choice-response,Shorter,5fbc5590be36f3ba328bd883,300ms_delay_2_91,5856,180,maintaskTrials_2_s_reversekey,maintaskTrials,34b38,1,1,True,9,2,1,JF,Group
162,5f7d2e104bfca86e4f58ef9a,Group_JF,0,34b38b84b781d28751b6846057394c59330d43f01ffed5f43a8e0acfec1a3ea9,1666,True,keypress,testresponse_l_F,3145,['Longer'],choice-response,Longer,5fbc5590be36f3ba328bd883,300ms_delay_2_55,7232,181,maintaskTrials_2_l_reversekey,maintaskTrials,34b38,1,0,True,5,2,5,JF,Group
163,5f7d2e104bfca86e4f58ef9a,Group_JF,0,34b38b84b781d28751b6846057394c59330d43f01ffed5f43a8e0acfec1a3ea9,1666,True,keypress,testresponse_l_F,1460,['Longer'],choice-response,Longer,5fbc5590be36f3ba328bd883,300ms_delay_2_95,5663,182,maintaskTrials_2_l_reversekey,maintaskTrials,34b38,1,0,True,9,2,5,JF,Group
164,5f7d2e104bfca86e4f58ef9a,Group_JF,0,34b38b84b781d28751b6846057394c59330d43f01ffed5f43a8e0acfec1a3ea9,1666,False,keypress,testresponse_s_J,69,['Shorter'],choice-response,Longer,5fbc5590be36f3ba328bd883,300ms_delay_2_83,4333,183,maintaskTrials_2_s_reversekey,maintaskTrials,34b38,0,0,True,8,2,3,JF,Group
165,5f7d2e104bfca86e4f58ef9a,Group_JF,0,34b38b84b781d28751b6846057394c59330d43f01ffed5f43a8e0acfec1a3ea9,1666,False,keypress,testresponse_s_J,207,['Shorter'],choice-response,Longer,5fbc5590be36f3ba328bd883,300ms_delay_2_52,4365,184,maintaskTrials_2_s_reversekey,maintaskTrials,34b38,0,0,True,5,2,2,JF,Group
166,5f7d2e104bfca86e4f58ef9a,Group_JF,0,34b38b84b781d28751b6846057394c59330d43f01ffed5f43a8e0acfec1a3ea9,1666,True,keypress,testresponse_l_F,136,['Longer'],choice-response,Longer,5fbc5590be36f3ba328bd883,300ms_delay_2_56,4237,185,maintaskTrials_2_l_reversekey,maintaskTrials,34b38,1,0,True,5,2,6,JF,Group
167,5f7d2e104bfca86e4f58ef9a,Group_JF,0,34b38b84b781d28751b6846057394c59330d43f01ffed5f43a8e0acfec1a3ea9,1666,True,keypress,testresponse_s_J,6894,['Shorter'],choice-response,Shorter,5fbc5590be36f3ba328bd883,300ms_delay_2_91,11127,186,maintaskTrials_2_s_reversekey,maintaskTrials,34b38,1,1,True,9,2,1,JF,Group
168,5f7d2e104bfca86e4f58ef9a,Group_JF,0,34b38b84b781d28751b6846057394c59330d43f01ffed5f43a8e0acfec1a3ea9,1666,True,keypress,testresponse_s_J,825,['Shorter'],choice-response,Shorter,5fbc5590be36f3ba328bd883,300ms_delay_2_53,4897,187,maintaskTrials_2_s_reversekey,maintaskTrials,34b38,1,1,True,5,2,3,JF,Group
169,5f7d2e104bfca86e4f58ef9a,Group_JF,0,34b38b84b781d28751b6846057394c59330d43f01ffed5f43a8e0acfec1a3ea9,1666,True,keypress,testresponse_s_J,1875,['Shorter'],choice-response,Shorter,5fbc5590be36f3ba328bd883,300ms_delay_2_51,5894,188,maintaskTrials_2_s_reversekey,maintaskTrials,34b38,1,1,True,5,2,1,JF,Group
170,5f7d2e104bfca86e4f58ef9a,Group_JF,0,34b38b84b781d28751b6846057394c59330d43f01ffed5f43a8e0acfec1a3ea9,1666,True,keypress,testresponse_s_J,5077,['Shorter'],choice-response,Shorter,5fbc5590be36f3ba328bd883,300ms_delay_2_93,9325,189,maintaskTrials_2_s_reversekey,maintaskTrials,34b38,1,1,True,9,2,3,JF,Group
171,5f7d2e104bfca86e4f58ef9a,Group_JF,0,34b38b84b781d28751b6846057394c59330d43f01ffed5f43a8e0acfec1a3ea9,1666,False,keypress,testresponse_l_F,101,['Longer'],choice-response,Shorter,5fbc5590be36f3ba328bd883,300ms_delay_2_96,4685,190,maintaskTrials_2_l_reversekey,maintaskTrials,34b38,0,1,True,9,2,6,JF,Group
172,5f7d2e104bfca86e4f58ef9a,Group_JF,0,34b38b84b781d28751b6846057394c59330d43f01ffed5f43a8e0acfec1a3ea9,1666,False,keypress,testresponse_l_F,203,['Longer'],choice-response,Shorter,5fbc5590be36f3ba328bd883,300ms_delay_2_54,4246,191,maintaskTrials_2_l_reversekey,maintaskTrials,34b38,0,1,True,5,2,4,JF,Group
173,5f7d2e104bfca86e4f58ef9a,Group_JF,0,34b38b84b781d28751b6846057394c59330d43f01ffed5f43a8e0acfec1a3ea9,1666,False,keypress,testresponse_l_F,475,['Longer'],choice-response,Shorter,5fbc5590be36f3ba328bd883,300ms_delay_2_84,4518,192,maintaskTrials_2_l_reversekey,maintaskTrials,34b38,0,1,True,8,2,4,JF,Group
174,5f7d2e104bfca86e4f58ef9a,Group_JF,0,34b38b84b781d28751b6846057394c59330d43f01ffed5f43a8e0acfec1a3ea9,1666,True,keypress,testresponse_l_F,139,['Longer'],choice-response,Longer,5fbc5590be36f3ba328bd883,300ms_delay_2_86,4372,193,maintaskTrials_2_l_reversekey,maintaskTrials,34b38,1,0,True,8,2,6,JF,Group
175,5f7d2e104bfca86e4f58ef9a,Group_JF,0,34b38b84b781d28751b6846057394c59330d43f01ffed5f43a8e0acfec1a3ea9,1666,True,keypress,testresponse_s_J,36,['Shorter'],choice-response,Shorter,5fbc5590be36f3ba328bd883,300ms_delay_2_82,4175,194,maintaskTrials_2_s_reversekey,maintaskTrials,34b38,1,1,True,8,2,2,JF,Group
176,5f7d2e104bfca86e4f58ef9a,Group_JF,0,34b38b84b781d28751b6846057394c59330d43f01ffed5f43a8e0acfec1a3ea9,1666,False,keypress,testresponse_s_J,38,['Shorter'],choice-response,Longer,5fbc5590be36f3ba328bd883,300ms_delay_2_81,4142,195,maintaskTrials_2_s_reversekey,maintaskTrials,34b38,0,0,True,8,2,1,JF,Group
177,5f7d2e104bfca86e4f58ef9a,Group_JF,0,34b38b84b781d28751b6846057394c59330d43f01ffed5f43a8e0acfec1a3ea9,1666,True,keypress,testresponse_l_F,18,['Longer'],choice-response,Longer,5fbc5590be36f3ba328bd883,300ms_delay_2_85,4180,196,maintaskTrials_2_l_reversekey,maintaskTrials,34b38,1,0,True,8,2,5,JF,Group
178,5f7d2e104bfca86e4f58ef9a,Group_JF,0,34b38b84b781d28751b6846057394c59330d43f01ffed5f43a8e0acfec1a3ea9,1666,True,keypress,testresponse_l_F,35,['Longer'],choice-response,Longer,5fbc5590be36f3ba328bd883,300ms_delay_2_94,4281,197,maintaskTrials_2_l_reversekey,maintaskTrials,34b38,1,0,True,9,2,4,JF,Group
179,5f7d2e104bfca86e4f58ef9a,Group_JF,0,34b38b84b781d28751b6846057394c59330d43f01ffed5f43a8e0acfec1a3ea9,1666,False,keypress,testresponse_s_J,24,['Shorter'],choice-response,Longer,5fbc5590be36f3ba328bd883,300ms_delay_2_92,4316,198,maintaskTrials_2_s_reversekey,maintaskTrials,34b38,0,0,True,9,2,2,JF,Group
180,5f7d2e104bfca86e4f58ef9a,Group_JF,0,34b38b84b781d28751b6846057394c59330d43f01ffed5f43a8e0acfec1a3ea9,1666,True,keypress,testresponse_l_F,39,['Longer'],choice-response,Longer,5fbc5590be36f3ba328bd883,300ms_delay_2_55,4281,199,maintaskTrials_2_l_reversekey,maintaskTrials,34b38,1,0,True,5,2,5,JF,Group
181,5f7d2e104bfca86e4f58ef9a,Group_JF,0,34b38b84b781d28751b6846057394c59330d43f01ffed5f43a8e0acfec1a3ea9,1666,True,keypress,testresponse_l_F,37,['Longer'],choice-response,Longer,5fbc5590be36f3ba328bd883,300ms_delay_2_86,4185,200,maintaskTrials_2_l_reversekey,maintaskTrials,34b38,1,0,True,8,2,6,JF,Group
182,5f7d2e104bfca86e4f58ef9a,Group_JF,0,34b38b84b781d28751b6846057394c59330d43f01ffed5f43a8e0acfec1a3ea9,1666,True,keypress,testresponse_l_F,31,['Longer'],choice-response,Longer,5fbc5590be36f3ba328bd883,300ms_delay_2_94,4285,201,maintaskTrials_2_l_reversekey,maintaskTrials,34b38,1,0,True,9,2,4,JF,Group
183,5f7d2e104bfca86e4f58ef9a,Group_JF,0,34b38b84b781d28751b6846057394c59330d43f01ffed5f43a8e0acfec1a3ea9,1666,False,keypress,testresponse_s_J,39,['Shorter'],choice-response,Longer,5fbc5590be36f3ba328bd883,300ms_delay_2_52,3996,202,maintaskTrials_2_s_reversekey,maintaskTrials,34b38,0,0,True,5,2,2,JF,Group
184,5f7d2e104bfca86e4f58ef9a,Group_JF,0,34b38b84b781d28751b6846057394c59330d43f01ffed5f43a8e0acfec1a3ea9,1666,True,keypress,testresponse_l_F,36,['Longer'],choice-response,Longer,5fbc5590be36f3ba328bd883,300ms_delay_2_54,4081,203,maintaskTrials_2_l_reversekey,maintaskTrials,34b38,1,0,True,5,2,4,JF,Group
185,5f7d2e104bfca86e4f58ef9a,Group_JF,0,34b38b84b781d28751b6846057394c59330d43f01ffed5f43a8e0acfec1a3ea9,1666,False,keypress,testresponse_s_J,42,['Shorter'],choice-response,Longer,5fbc5590be36f3ba328bd883,300ms_delay_2_92,4250,204,maintaskTrials_2_s_reversekey,maintaskTrials,34b38,0,0,True,9,2,2,JF,Group
186,5f7d2e104bfca86e4f58ef9a,Group_JF,0,34b38b84b781d28751b6846057394c59330d43f01ffed5f43a8e0acfec1a3ea9,1666,True,keypress,testresponse_l_F,29,['Longer'],choice-response,Longer,5fbc5590be36f3ba328bd883,300ms_delay_2_56,3996,205,maintaskTrials_2_l_reversekey,maintaskTrials,34b38,1,0,True,5,2,6,JF,Group
187,5f7d2e104bfca86e4f58ef9a,Group_JF,0,34b38b84b781d28751b6846057394c59330d43f01ffed5f43a8e0acfec1a3ea9,1666,True,keypress,testresponse_l_F,26,['Longer'],choice-response,Longer,5fbc5590be36f3ba328bd883,300ms_delay_2_85,4181,206,maintaskTrials_2_l_reversekey,maintaskTrials,34b38,1,0,True,8,2,5,JF,Group
188,5f7d2e104bfca86e4f58ef9a,Group_JF,0,34b38b84b781d28751b6846057394c59330d43f01ffed5f43a8e0acfec1a3ea9,1666,False,keypress,testresponse_s_J,25,['Shorter'],choice-response,Longer,5fbc5590be36f3ba328bd883,300ms_delay_2_93,4283,207,maintaskTrials_2_s_reversekey,maintaskTrials,34b38,0,0,True,9,2,3,JF,Group
189,5f7d2e104bfca86e4f58ef9a,Group_JF,0,34b38b84b781d28751b6846057394c59330d43f01ffed5f43a8e0acfec1a3ea9,1666,True,keypress,testresponse_l_F,22,['Longer'],choice-response,Longer,5fbc5590be36f3ba328bd883,300ms_delay_2_96,4285,208,maintaskTrials_2_l_reversekey,maintaskTrials,34b38,1,0,True,9,2,6,JF,Group
190,5f7d2e104bfca86e4f58ef9a,Group_JF,0,34b38b84b781d28751b6846057394c59330d43f01ffed5f43a8e0acfec1a3ea9,1666,False,keypress,testresponse_s_J,36,['Shorter'],choice-response,Longer,5fbc5590be36f3ba328bd883,300ms_delay_2_82,4246,209,maintaskTrials_2_s_reversekey,maintaskTrials,34b38,0,0,True,8,2,2,JF,Group
191,5f7d2e104bfca86e4f58ef9a,Group_JF,0,34b38b84b781d28751b6846057394c59330d43f01ffed5f43a8e0acfec1a3ea9,1666,False,keypress,testresponse_s_J,352,['Shorter'],choice-response,Longer,5fbc5590be36f3ba328bd883,300ms_delay_2_81,4479,210,maintaskTrials_2_s_reversekey,maintaskTrials,34b38,0,0,True,8,2,1,JF,Group
192,5f7d2e104bfca86e4f58ef9a,Group_JF,0,34b38b84b781d28751b6846057394c59330d43f01ffed5f43a8e0acfec1a3ea9,1666,False,keypress,testresponse_s_J,181,['Shorter'],choice-response,Longer,5fbc5590be36f3ba328bd883,300ms_delay_2_51,4172,211,maintaskTrials_2_s_reversekey,maintaskTrials,34b38,0,0,True,5,2,1,JF,Group
193,5f7d2e104bfca86e4f58ef9a,Group_JF,0,34b38b84b781d28751b6846057394c59330d43f01ffed5f43a8e0acfec1a3ea9,1666,False,keypress,testresponse_s_J,133,['Shorter'],choice-response,Longer,5fbc5590be36f3ba328bd883,300ms_delay_2_91,4326,212,maintaskTrials_2_s_reversekey,maintaskTrials,34b38,0,0,True,9,2,1,JF,Group
194,5f7d2e104bfca86e4f58ef9a,Group_JF,0,34b38b84b781d28751b6846057394c59330d43f01ffed5f43a8e0acfec1a3ea9,1666,False,keypress,testresponse_s_J,112,['Shorter'],choice-response,Longer,5fbc5590be36f3ba328bd883,300ms_delay_2_83,4263,213,maintaskTrials_2_s_reversekey,maintaskTrials,34b38,0,0,True,8,2,3,JF,Group
195,5f7d2e104bfca86e4f58ef9a,Group_JF,0,34b38b84b781d28751b6846057394c59330d43f01ffed5f43a8e0acfec1a3ea9,1666,True,keypress,testresponse_l_F,1280,['Longer'],choice-response,Longer,5fbc5590be36f3ba328bd883,300ms_delay_2_95,5492,214,maintaskTrials_2_l_reversekey,maintaskTrials,34b38,1,0,True,9,2,5,JF,Group
196,5f7d2e104bfca86e4f58ef9a,Group_JF,0,34b38b84b781d28751b6846057394c59330d43f01ffed5f43a8e0acfec1a3ea9,1666,False,keypress,testresponse_l_F,3780,['Longer'],choice-response,Shorter,5fbc5590be36f3ba328bd883,300ms_delay_2_84,7959,215,maintaskTrials_2_l_reversekey,maintaskTrials,34b38,0,1,True,8,2,4,JF,Group
197,5f7d2e104bfca86e4f58ef9a,Group_JF,0,34b38b84b781d28751b6846057394c59330d43f01ffed5f43a8e0acfec1a3ea9,1666,False,keypress,testresponse_s_J,3121,['Shorter'],choice-response,Longer,5fbc5590be36f3ba328bd883,300ms_delay_2_53,7204,216,maintaskTrials_2_s_reversekey,maintaskTrials,34b38,0,0,True,5,2,3,JF,Group
198,5f7d2e104bfca86e4f58ef9a,Group_JF,0,34b38b84b781d28751b6846057394c59330d43f01ffed5f43a8e0acfec1a3ea9,1666,False,keypress,testresponse_l_F,2114,['Longer'],choice-response,Shorter,5fbc5590be36f3ba328bd883,300ms_delay_2_56,6126,217,maintaskTrials_2_l_reversekey,maintaskTrials,34b38,0,1,True,5,2,6,JF,Group
199,5f7d2e104bfca86e4f58ef9a,Group_JF,0,34b38b84b781d28751b6846057394c59330d43f01ffed5f43a8e0acfec1a3ea9,1666,False,keypress,testresponse_s_J,1971,['Shorter'],choice-response,Longer,5fbc5590be36f3ba328bd883,300ms_delay_2_53,6037,218,maintaskTrials_2_s_reversekey,maintaskTrials,34b38,0,0,True,5,2,3,JF,Group
200,5f7d2e104bfca86e4f58ef9a,Group_JF,0,34b38b84b781d28751b6846057394c59330d43f01ffed5f43a8e0acfec1a3ea9,1666,False,keypress,testresponse_l_F,3569,['Longer'],choice-response,Shorter,5fbc5590be36f3ba328bd883,300ms_delay_2_95,7832,219,maintaskTrials_2_l_reversekey,maintaskTrials,34b38,0,1,True,9,2,5,JF,Group
201,5f7d2e104bfca86e4f58ef9a,Group_JF,0,34b38b84b781d28751b6846057394c59330d43f01ffed5f43a8e0acfec1a3ea9,1666,True,keypress,testresponse_s_J,99,['Shorter'],choice-response,Shorter,5fbc5590be36f3ba328bd883,300ms_delay_2_81,4256,220,maintaskTrials_2_s_reversekey,maintaskTrials,34b38,1,1,True,8,2,1,JF,Group
202,5f7d2e104bfca86e4f58ef9a,Group_JF,0,34b38b84b781d28751b6846057394c59330d43f01ffed5f43a8e0acfec1a3ea9,1666,True,keypress,testresponse_s_J,1320,['Shorter'],choice-response,Shorter,5fbc5590be36f3ba328bd883,300ms_delay_2_92,5555,221,maintaskTrials_2_s_reversekey,maintaskTrials,34b38,1,1,True,9,2,2,JF,Group
203,5f7d2e104bfca86e4f58ef9a,Group_JF,0,34b38b84b781d28751b6846057394c59330d43f01ffed5f43a8e0acfec1a3ea9,1666,False,keypress,testresponse_l_F,449,['Longer'],choice-response,Shorter,5fbc5590be36f3ba328bd883,300ms_delay_2_54,4522,222,maintaskTrials_2_l_reversekey,maintaskTrials,34b38,0,1,True,5,2,4,JF,Group
204,5f7d2e104bfca86e4f58ef9a,Group_JF,0,34b38b84b781d28751b6846057394c59330d43f01ffed5f43a8e0acfec1a3ea9,1666,False,keypress,testresponse_l_F,417,['Longer'],choice-response,Shorter,5fbc5590be36f3ba328bd883,300ms_delay_2_55,4361,223,maintaskTrials_2_l_reversekey,maintaskTrials,34b38,0,1,True,5,2,5,JF,Group
205,5f7d2e104bfca86e4f58ef9a,Group_JF,0,34b38b84b781d28751b6846057394c59330d43f01ffed5f43a8e0acfec1a3ea9,1666,True,keypress,testresponse_s_J,480,['Shorter'],choice-response,Shorter,5fbc5590be36f3ba328bd883,300ms_delay_2_91,4705,224,maintaskTrials_2_s_reversekey,maintaskTrials,34b38,1,1,True,9,2,1,JF,Group
206,5f7d2e104bfca86e4f58ef9a,Group_JF,0,34b38b84b781d28751b6846057394c59330d43f01ffed5f43a8e0acfec1a3ea9,1666,True,keypress,testresponse_l_F,3068,['Longer'],choice-response,Longer,5fbc5590be36f3ba328bd883,300ms_delay_2_84,7362,225,maintaskTrials_2_l_reversekey,maintaskTrials,34b38,1,0,True,8,2,4,JF,Group
207,5f7d2e104bfca86e4f58ef9a,Group_JF,0,34b38b84b781d28751b6846057394c59330d43f01ffed5f43a8e0acfec1a3ea9,1666,True,keypress,testresponse_s_J,14,['Shorter'],choice-response,Shorter,5fbc5590be36f3ba328bd883,300ms_delay_2_93,4787,226,maintaskTrials_2_s_reversekey,maintaskTrials,34b38,1,1,True,9,2,3,JF,Group
208,5f7d2e104bfca86e4f58ef9a,Group_JF,0,34b38b84b781d28751b6846057394c59330d43f01ffed5f43a8e0acfec1a3ea9,1666,True,keypress,testresponse_l_F,1968,['Longer'],choice-response,Longer,5fbc5590be36f3ba328bd883,300ms_delay_2_94,6585,227,maintaskTrials_2_l_reversekey,maintaskTrials,34b38,1,0,True,9,2,4,JF,Group
209,5f7d2e104bfca86e4f58ef9a,Group_JF,0,34b38b84b781d28751b6846057394c59330d43f01ffed5f43a8e0acfec1a3ea9,1666,False,keypress,testresponse_s_J,7321,['Shorter'],choice-response,Longer,5fbc5590be36f3ba328bd883,300ms_delay_2_52,11285,228,maintaskTrials_2_s_reversekey,maintaskTrials,34b38,0,0,True,5,2,2,JF,Group
210,5f7d2e104bfca86e4f58ef9a,Group_JF,0,34b38b84b781d28751b6846057394c59330d43f01ffed5f43a8e0acfec1a3ea9,1666,True,keypress,testresponse_l_F,2636,['Longer'],choice-response,Longer,5fbc5590be36f3ba328bd883,300ms_delay_2_85,7026,229,maintaskTrials_2_l_reversekey,maintaskTrials,34b38,1,0,True,8,2,5,JF,Group
211,5f7d2e104bfca86e4f58ef9a,Group_JF,0,34b38b84b781d28751b6846057394c59330d43f01ffed5f43a8e0acfec1a3ea9,1666,False,keypress,testresponse_s_J,2497,['Shorter'],choice-response,Longer,5fbc5590be36f3ba328bd883,300ms_delay_2_51,6683,230,maintaskTrials_2_s_reversekey,maintaskTrials,34b38,0,0,True,5,2,1,JF,Group
212,5f7d2e104bfca86e4f58ef9a,Group_JF,0,34b38b84b781d28751b6846057394c59330d43f01ffed5f43a8e0acfec1a3ea9,1666,False,keypress,testresponse_s_J,1571,['Shorter'],choice-response,Longer,5fbc5590be36f3ba328bd883,300ms_delay_2_83,5720,231,maintaskTrials_2_s_reversekey,maintaskTrials,34b38,0,0,True,8,2,3,JF,Group
213,5f7d2e104bfca86e4f58ef9a,Group_JF,0,34b38b84b781d28751b6846057394c59330d43f01ffed5f43a8e0acfec1a3ea9,1666,True,keypress,testresponse_l_F,13682,['Longer'],choice-response,Longer,5fbc5590be36f3ba328bd883,300ms_delay_2_96,17864,232,maintaskTrials_2_l_reversekey,maintaskTrials,34b38,1,0,True,9,2,6,JF,Group
214,5f7d2e104bfca86e4f58ef9a,Group_JF,0,34b38b84b781d28751b6846057394c59330d43f01ffed5f43a8e0acfec1a3ea9,1666,False,keypress,testresponse_s_J,3621,['Shorter'],choice-response,Longer,5fbc5590be36f3ba328bd883,300ms_delay_2_82,7997,233,maintaskTrials_2_s_reversekey,maintaskTrials,34b38,0,0,True,8,2,2,JF,Group
215,5f7d2e104bfca86e4f58ef9a,Group_JF,0,34b38b84b781d28751b6846057394c59330d43f01ffed5f43a8e0acfec1a3ea9,1666,False,keypress,testresponse_l_F,92,['Longer'],choice-response,Shorter,5fbc5590be36f3ba328bd883,300ms_delay_2_86,4197,234,maintaskTrials_2_l_reversekey,maintaskTrials,34b38,0,1,True,8,2,6,JF,Group
216,5f7d2e104bfca86e4f58ef9a,Group_FJ,0,2d961a38a72a6b510043072212505098cb92a930e9c098375a0c2dfce3cb6275,1843,False,keypress,testresponse_l_J,3838,['Longer'],choice-response,Shorter,5fbc5590be36f3ba328bd883,300ms_delay_2_56,8888,19,maintaskTrials_2_l,maintaskTrials,2d961,0,1,True,5,2,6,FJ,Group
217,5f7d2e104bfca86e4f58ef9a,Group_FJ,0,2d961a38a72a6b510043072212505098cb92a930e9c098375a0c2dfce3cb6275,1843,False,keypress,testresponse_s_F,870,['Shorter'],choice-response,Longer,5fbc5590be36f3ba328bd883,300ms_delay_2_53,5337,20,maintaskTrials_2_s,maintaskTrials,2d961,0,0,True,5,2,3,FJ,Group
218,5f7d2e104bfca86e4f58ef9a,Group_FJ,0,2d961a38a72a6b510043072212505098cb92a930e9c098375a0c2dfce3cb6275,1843,True,keypress,testresponse_s_F,792,['Shorter'],choice-response,Shorter,5fbc5590be36f3ba328bd883,300ms_delay_2_52,4877,21,maintaskTrials_2_s,maintaskTrials,2d961,1,1,True,5,2,2,FJ,Group
219,5f7d2e104bfca86e4f58ef9a,Group_FJ,0,2d961a38a72a6b510043072212505098cb92a930e9c098375a0c2dfce3cb6275,1843,True,keypress,testresponse_s_F,1476,['Shorter'],choice-response,Shorter,5fbc5590be36f3ba328bd883,300ms_delay_2_81,6022,22,maintaskTrials_2_s,maintaskTrials,2d961,1,1,True,8,2,1,FJ,Group
220,5f7d2e104bfca86e4f58ef9a,Group_FJ,0,2d961a38a72a6b510043072212505098cb92a930e9c098375a0c2dfce3cb6275,1843,False,keypress,testresponse_s_F,668,['Shorter'],choice-response,Longer,5fbc5590be36f3ba328bd883,300ms_delay_2_93,5249,23,maintaskTrials_2_s,maintaskTrials,2d961,0,0,True,9,2,3,FJ,Group
221,5f7d2e104bfca86e4f58ef9a,Group_FJ,0,2d961a38a72a6b510043072212505098cb92a930e9c098375a0c2dfce3cb6275,1843,True,keypress,testresponse_l_J,1159,['Longer'],choice-response,Longer,5fbc5590be36f3ba328bd883,300ms_delay_2_96,5761,24,maintaskTrials_2_l,maintaskTrials,2d961,1,0,True,9,2,6,FJ,Group
222,5f7d2e104bfca86e4f58ef9a,Group_FJ,0,2d961a38a72a6b510043072212505098cb92a930e9c098375a0c2dfce3cb6275,1843,False,keypress,testresponse_s_F,798,['Shorter'],choice-response,Longer,5fbc5590be36f3ba328bd883,300ms_delay_2_91,5365,25,maintaskTrials_2_s,maintaskTrials,2d961,0,0,True,9,2,1,FJ,Group
223,5f7d2e104bfca86e4f58ef9a,Group_FJ,0,2d961a38a72a6b510043072212505098cb92a930e9c098375a0c2dfce3cb6275,1843,True,keypress,testresponse_l_J,579,['Longer'],choice-response,Longer,5fbc5590be36f3ba328bd883,300ms_delay_2_85,5170,26,maintaskTrials_2_l,maintaskTrials,2d961,1,0,True,8,2,5,FJ,Group
224,5f7d2e104bfca86e4f58ef9a,Group_FJ,0,2d961a38a72a6b510043072212505098cb92a930e9c098375a0c2dfce3cb6275,1843,False,keypress,testresponse_l_J,759,['Longer'],choice-response,Shorter,5fbc5590be36f3ba328bd883,300ms_delay_2_54,5104,27,maintaskTrials_2_l,maintaskTrials,2d961,0,1,True,5,2,4,FJ,Group
225,5f7d2e104bfca86e4f58ef9a,Group_FJ,0,2d961a38a72a6b510043072212505098cb92a930e9c098375a0c2dfce3cb6275,1843,True,keypress,testresponse_l_J,823,['Longer'],choice-response,Longer,5fbc5590be36f3ba328bd883,300ms_delay_2_86,5177,28,maintaskTrials_2_l,maintaskTrials,2d961,1,0,True,8,2,6,FJ,Group
226,5f7d2e104bfca86e4f58ef9a,Group_FJ,0,2d961a38a72a6b510043072212505098cb92a930e9c098375a0c2dfce3cb6275,1843,True,keypress,testresponse_s_F,749,['Shorter'],choice-response,Shorter,5fbc5590be36f3ba328bd883,300ms_delay_2_51,10690,29,maintaskTrials_2_s,maintaskTrials,2d961,1,1,True,5,2,1,FJ,Group
227,5f7d2e104bfca86e4f58ef9a,Group_FJ,0,2d961a38a72a6b510043072212505098cb92a930e9c098375a0c2dfce3cb6275,1843,False,keypress,testresponse_s_F,715,['Shorter'],choice-response,Longer,5fbc5590be36f3ba328bd883,300ms_delay_2_83,5269,30,maintaskTrials_2_s,maintaskTrials,2d961,0,0,True,8,2,3,FJ,Group
228,5f7d2e104bfca86e4f58ef9a,Group_FJ,0,2d961a38a72a6b510043072212505098cb92a930e9c098375a0c2dfce3cb6275,1843,True,keypress,testresponse_l_J,570,['Longer'],choice-response,Longer,5fbc5590be36f3ba328bd883,300ms_delay_2_55,5139,31,maintaskTrials_2_l,maintaskTrials,2d961,1,0,True,5,2,5,FJ,Group
229,5f7d2e104bfca86e4f58ef9a,Group_FJ,0,2d961a38a72a6b510043072212505098cb92a930e9c098375a0c2dfce3cb6275,1843,True,keypress,testresponse_s_F,680,['Shorter'],choice-response,Shorter,5fbc5590be36f3ba328bd883,300ms_delay_2_92,4866,32,maintaskTrials_2_s,maintaskTrials,2d961,1,1,True,9,2,2,FJ,Group
230,5f7d2e104bfca86e4f58ef9a,Group_FJ,0,2d961a38a72a6b510043072212505098cb92a930e9c098375a0c2dfce3cb6275,1843,False,keypress,testresponse_l_J,480,['Longer'],choice-response,Shorter,5fbc5590be36f3ba328bd883,300ms_delay_2_94,5232,33,maintaskTrials_2_l,maintaskTrials,2d961,0,1,True,9,2,4,FJ,Group
231,5f7d2e104bfca86e4f58ef9a,Group_FJ,0,2d961a38a72a6b510043072212505098cb92a930e9c098375a0c2dfce3cb6275,1843,True,keypress,testresponse_s_F,593,['Shorter'],choice-response,Shorter,5fbc5590be36f3ba328bd883,300ms_delay_2_82,4876,34,maintaskTrials_2_s,maintaskTrials,2d961,1,1,True,8,2,2,FJ,Group
232,5f7d2e104bfca86e4f58ef9a,Group_FJ,0,2d961a38a72a6b510043072212505098cb92a930e9c098375a0c2dfce3cb6275,1843,True,keypress,testresponse_l_J,875,['Longer'],choice-response,Longer,5fbc5590be36f3ba328bd883,300ms_delay_2_95,5549,35,maintaskTrials_2_l,maintaskTrials,2d961,1,0,True,9,2,5,FJ,Group
233,5f7d2e104bfca86e4f58ef9a,Group_FJ,0,2d961a38a72a6b510043072212505098cb92a930e9c098375a0c2dfce3cb6275,1843,False,keypress,testresponse_l_J,575,['Longer'],choice-response,Shorter,5fbc5590be36f3ba328bd883,300ms_delay_2_84,5042,36,maintaskTrials_2_l,maintaskTrials,2d961,0,1,True,8,2,4,FJ,Group
234,5f7d2e104bfca86e4f58ef9a,Group_FJ,0,2d961a38a72a6b510043072212505098cb92a930e9c098375a0c2dfce3cb6275,1843,True,keypress,testresponse_l_J,518,['Longer'],choice-response,Longer,5fbc5590be36f3ba328bd883,300ms_delay_2_86,4751,37,maintaskTrials_2_l,maintaskTrials,2d961,1,0,True,8,2,6,FJ,Group
235,5f7d2e104bfca86e4f58ef9a,Group_FJ,0,2d961a38a72a6b510043072212505098cb92a930e9c098375a0c2dfce3cb6275,1843,False,keypress,testresponse_s_F,723,['Shorter'],choice-response,Longer,5fbc5590be36f3ba328bd883,300ms_delay_2_93,5372,38,maintaskTrials_2_s,maintaskTrials,2d961,0,0,True,9,2,3,FJ,Group
236,5f7d2e104bfca86e4f58ef9a,Group_FJ,0,2d961a38a72a6b510043072212505098cb92a930e9c098375a0c2dfce3cb6275,1843,False,keypress,testresponse_l_J,2426,['Longer'],choice-response,Shorter,5fbc5590be36f3ba328bd883,300ms_delay_2_94,7079,39,maintaskTrials_2_l,maintaskTrials,2d961,0,1,True,9,2,4,FJ,Group
237,5f7d2e104bfca86e4f58ef9a,Group_FJ,0,2d961a38a72a6b510043072212505098cb92a930e9c098375a0c2dfce3cb6275,1843,True,keypress,testresponse_s_F,695,['Shorter'],choice-response,Shorter,5fbc5590be36f3ba328bd883,300ms_delay_2_91,4868,40,maintaskTrials_2_s,maintaskTrials,2d961,1,1,True,9,2,1,FJ,Group
238,5f7d2e104bfca86e4f58ef9a,Group_FJ,0,2d961a38a72a6b510043072212505098cb92a930e9c098375a0c2dfce3cb6275,1843,True,keypress,testresponse_l_J,580,['Longer'],choice-response,Longer,5fbc5590be36f3ba328bd883,300ms_delay_2_84,4901,41,maintaskTrials_2_l,maintaskTrials,2d961,1,0,True,8,2,4,FJ,Group
239,5f7d2e104bfca86e4f58ef9a,Group_FJ,0,2d961a38a72a6b510043072212505098cb92a930e9c098375a0c2dfce3cb6275,1843,False,keypress,testresponse_s_F,551,['Shorter'],choice-response,Longer,5fbc5590be36f3ba328bd883,300ms_delay_2_83,5093,42,maintaskTrials_2_s,maintaskTrials,2d961,0,0,True,8,2,3,FJ,Group
240,5f7d2e104bfca86e4f58ef9a,Group_FJ,0,2d961a38a72a6b510043072212505098cb92a930e9c098375a0c2dfce3cb6275,1843,True,keypress,testresponse_l_J,857,['Longer'],choice-response,Longer,5fbc5590be36f3ba328bd883,300ms_delay_2_55,4932,43,maintaskTrials_2_l,maintaskTrials,2d961,1,0,True,5,2,5,FJ,Group
241,5f7d2e104bfca86e4f58ef9a,Group_FJ,0,2d961a38a72a6b510043072212505098cb92a930e9c098375a0c2dfce3cb6275,1843,True,keypress,testresponse_s_F,580,['Shorter'],choice-response,Shorter,5fbc5590be36f3ba328bd883,300ms_delay_2_81,5042,44,maintaskTrials_2_s,maintaskTrials,2d961,1,1,True,8,2,1,FJ,Group
242,5f7d2e104bfca86e4f58ef9a,Group_FJ,0,2d961a38a72a6b510043072212505098cb92a930e9c098375a0c2dfce3cb6275,1843,False,keypress,testresponse_s_F,827,['Shorter'],choice-response,Longer,5fbc5590be36f3ba328bd883,300ms_delay_2_52,5272,45,maintaskTrials_2_s,maintaskTrials,2d961,0,0,True,5,2,2,FJ,Group
243,5f7d2e104bfca86e4f58ef9a,Group_FJ,0,2d961a38a72a6b510043072212505098cb92a930e9c098375a0c2dfce3cb6275,1843,True,keypress,testresponse_l_J,587,['Longer'],choice-response,Longer,5fbc5590be36f3ba328bd883,300ms_delay_2_56,4699,46,maintaskTrials_2_l,maintaskTrials,2d961,1,0,True,5,2,6,FJ,Group
244,5f7d2e104bfca86e4f58ef9a,Group_FJ,0,2d961a38a72a6b510043072212505098cb92a930e9c098375a0c2dfce3cb6275,1843,True,keypress,testresponse_s_F,626,['Shorter'],choice-response,Shorter,5fbc5590be36f3ba328bd883,300ms_delay_2_51,5133,47,maintaskTrials_2_s,maintaskTrials,2d961,1,1,True,5,2,1,FJ,Group
245,5f7d2e104bfca86e4f58ef9a,Group_FJ,0,2d961a38a72a6b510043072212505098cb92a930e9c098375a0c2dfce3cb6275,1843,True,keypress,testresponse_l_J,665,['Longer'],choice-response,Longer,5fbc5590be36f3ba328bd883,300ms_delay_2_95,4905,48,maintaskTrials_2_l,maintaskTrials,2d961,1,0,True,9,2,5,FJ,Group
246,5f7d2e104bfca86e4f58ef9a,Group_FJ,0,2d961a38a72a6b510043072212505098cb92a930e9c098375a0c2dfce3cb6275,1843,True,keypress,testresponse_s_F,501,['Shorter'],choice-response,Shorter,5fbc5590be36f3ba328bd883,300ms_delay_2_82,4566,49,maintaskTrials_2_s,maintaskTrials,2d961,1,1,True,8,2,2,FJ,Group
247,5f7d2e104bfca86e4f58ef9a,Group_FJ,0,2d961a38a72a6b510043072212505098cb92a930e9c098375a0c2dfce3cb6275,1843,True,keypress,testresponse_s_F,1089,['Shorter'],choice-response,Shorter,5fbc5590be36f3ba328bd883,300ms_delay_2_53,5618,50,maintaskTrials_2_s,maintaskTrials,2d961,1,1,True,5,2,3,FJ,Group
248,5f7d2e104bfca86e4f58ef9a,Group_FJ,0,2d961a38a72a6b510043072212505098cb92a930e9c098375a0c2dfce3cb6275,1843,True,keypress,testresponse_s_F,776,['Shorter'],choice-response,Shorter,5fbc5590be36f3ba328bd883,300ms_delay_2_92,5001,51,maintaskTrials_2_s,maintaskTrials,2d961,1,1,True,9,2,2,FJ,Group
249,5f7d2e104bfca86e4f58ef9a,Group_FJ,0,2d961a38a72a6b510043072212505098cb92a930e9c098375a0c2dfce3cb6275,1843,True,keypress,testresponse_l_J,848,['Longer'],choice-response,Longer,5fbc5590be36f3ba328bd883,300ms_delay_2_54,5306,52,maintaskTrials_2_l,maintaskTrials,2d961,1,0,True,5,2,4,FJ,Group
250,5f7d2e104bfca86e4f58ef9a,Group_FJ,0,2d961a38a72a6b510043072212505098cb92a930e9c098375a0c2dfce3cb6275,1843,False,keypress,testresponse_l_J,2219,['Longer'],choice-response,Shorter,5fbc5590be36f3ba328bd883,300ms_delay_2_85,6900,53,maintaskTrials_2_l,maintaskTrials,2d961,0,1,True,8,2,5,FJ,Group
251,5f7d2e104bfca86e4f58ef9a,Group_FJ,0,2d961a38a72a6b510043072212505098cb92a930e9c098375a0c2dfce3cb6275,1843,False,keypress,testresponse_l_J,702,['Longer'],choice-response,Shorter,5fbc5590be36f3ba328bd883,300ms_delay_2_96,5040,54,maintaskTrials_2_l,maintaskTrials,2d961,0,1,True,9,2,6,FJ,Group
252,5f7d2e104bfca86e4f58ef9a,Group_FJ,0,2d961a38a72a6b510043072212505098cb92a930e9c098375a0c2dfce3cb6275,1843,False,keypress,testresponse_s_F,939,['Shorter'],choice-response,Longer,5fbc5590be36f3ba328bd883,300ms_delay_2_81,5069,55,maintaskTrials_2_s,maintaskTrials,2d961,0,0,True,8,2,1,FJ,Group
253,5f7d2e104bfca86e4f58ef9a,Group_FJ,0,2d961a38a72a6b510043072212505098cb92a930e9c098375a0c2dfce3cb6275,1843,True,keypress,testresponse_l_J,515,['Longer'],choice-response,Longer,5fbc5590be36f3ba328bd883,300ms_delay_2_95,5237,56,maintaskTrials_2_l,maintaskTrials,2d961,1,0,True,9,2,5,FJ,Group
254,5f7d2e104bfca86e4f58ef9a,Group_FJ,0,2d961a38a72a6b510043072212505098cb92a930e9c098375a0c2dfce3cb6275,1843,False,keypress,testresponse_l_J,809,['Longer'],choice-response,Shorter,5fbc5590be36f3ba328bd883,300ms_delay_2_54,4925,57,maintaskTrials_2_l,maintaskTrials,2d961,0,1,True,5,2,4,FJ,Group
255,5f7d2e104bfca86e4f58ef9a,Group_FJ,0,2d961a38a72a6b510043072212505098cb92a930e9c098375a0c2dfce3cb6275,1843,False,keypress,testresponse_s_F,448,['Shorter'],choice-response,Longer,5fbc5590be36f3ba328bd883,300ms_delay_2_82,4976,58,maintaskTrials_2_s,maintaskTrials,2d961,0,0,True,8,2,2,FJ,Group
256,5f7d2e104bfca86e4f58ef9a,Group_FJ,0,2d961a38a72a6b510043072212505098cb92a930e9c098375a0c2dfce3cb6275,1843,True,keypress,testresponse_l_J,512,['Longer'],choice-response,Longer,5fbc5590be36f3ba328bd883,300ms_delay_2_94,5155,59,maintaskTrials_2_l,maintaskTrials,2d961,1,0,True,9,2,4,FJ,Group
257,5f7d2e104bfca86e4f58ef9a,Group_FJ,0,2d961a38a72a6b510043072212505098cb92a930e9c098375a0c2dfce3cb6275,1843,False,keypress,testresponse_l_J,557,['Longer'],choice-response,Shorter,5fbc5590be36f3ba328bd883,300ms_delay_2_96,4742,60,maintaskTrials_2_l,maintaskTrials,2d961,0,1,True,9,2,6,FJ,Group
258,5f7d2e104bfca86e4f58ef9a,Group_FJ,0,2d961a38a72a6b510043072212505098cb92a930e9c098375a0c2dfce3cb6275,1843,True,keypress,testresponse_l_J,625,['Longer'],choice-response,Longer,5fbc5590be36f3ba328bd883,300ms_delay_2_85,5257,61,maintaskTrials_2_l,maintaskTrials,2d961,1,0,True,8,2,5,FJ,Group
259,5f7d2e104bfca86e4f58ef9a,Group_FJ,0,2d961a38a72a6b510043072212505098cb92a930e9c098375a0c2dfce3cb6275,1843,True,keypress,testresponse_s_F,1650,['Shorter'],choice-response,Shorter,5fbc5590be36f3ba328bd883,300ms_delay_2_83,6223,62,maintaskTrials_2_s,maintaskTrials,2d961,1,1,True,8,2,3,FJ,Group
260,5f7d2e104bfca86e4f58ef9a,Group_FJ,0,2d961a38a72a6b510043072212505098cb92a930e9c098375a0c2dfce3cb6275,1843,False,keypress,testresponse_s_F,1083,['Shorter'],choice-response,Longer,5fbc5590be36f3ba328bd883,300ms_delay_2_93,5396,63,maintaskTrials_2_s,maintaskTrials,2d961,0,0,True,9,2,3,FJ,Group
261,5f7d2e104bfca86e4f58ef9a,Group_FJ,0,2d961a38a72a6b510043072212505098cb92a930e9c098375a0c2dfce3cb6275,1843,False,keypress,testresponse_s_F,649,['Shorter'],choice-response,Longer,5fbc5590be36f3ba328bd883,300ms_delay_2_53,4909,64,maintaskTrials_2_s,maintaskTrials,2d961,0,0,True,5,2,3,FJ,Group
262,5f7d2e104bfca86e4f58ef9a,Group_FJ,0,2d961a38a72a6b510043072212505098cb92a930e9c098375a0c2dfce3cb6275,1843,True,keypress,testresponse_s_F,618,['Shorter'],choice-response,Shorter,5fbc5590be36f3ba328bd883,300ms_delay_2_91,5271,65,maintaskTrials_2_s,maintaskTrials,2d961,1,1,True,9,2,1,FJ,Group
263,5f7d2e104bfca86e4f58ef9a,Group_FJ,0,2d961a38a72a6b510043072212505098cb92a930e9c098375a0c2dfce3cb6275,1843,False,keypress,testresponse_s_F,858,['Shorter'],choice-response,Longer,5fbc5590be36f3ba328bd883,300ms_delay_2_51,4862,66,maintaskTrials_2_s,maintaskTrials,2d961,0,0,True,5,2,1,FJ,Group
264,5f7d2e104bfca86e4f58ef9a,Group_FJ,0,2d961a38a72a6b510043072212505098cb92a930e9c098375a0c2dfce3cb6275,1843,False,keypress,testresponse_s_F,1905,['Shorter'],choice-response,Longer,5fbc5590be36f3ba328bd883,300ms_delay_2_92,6554,67,maintaskTrials_2_s,maintaskTrials,2d961,0,0,True,9,2,2,FJ,Group
265,5f7d2e104bfca86e4f58ef9a,Group_FJ,0,2d961a38a72a6b510043072212505098cb92a930e9c098375a0c2dfce3cb6275,1843,True,keypress,testresponse_l_J,817,['Longer'],choice-response,Longer,5fbc5590be36f3ba328bd883,300ms_delay_2_55,5487,68,maintaskTrials_2_l,maintaskTrials,2d961,1,0,True,5,2,5,FJ,Group
266,5f7d2e104bfca86e4f58ef9a,Group_FJ,0,2d961a38a72a6b510043072212505098cb92a930e9c098375a0c2dfce3cb6275,1843,True,keypress,testresponse_l_J,775,['Longer'],choice-response,Longer,5fbc5590be36f3ba328bd883,300ms_delay_2_84,4965,69,maintaskTrials_2_l,maintaskTrials,2d961,1,0,True,8,2,4,FJ,Group
267,5f7d2e104bfca86e4f58ef9a,Group_FJ,0,2d961a38a72a6b510043072212505098cb92a930e9c098375a0c2dfce3cb6275,1843,True,keypress,testresponse_s_F,519,['Shorter'],choice-response,Shorter,5fbc5590be36f3ba328bd883,300ms_delay_2_52,4975,70,maintaskTrials_2_s,maintaskTrials,2d961,1,1,True,5,2,2,FJ,Group
268,5f7d2e104bfca86e4f58ef9a,Group_FJ,0,2d961a38a72a6b510043072212505098cb92a930e9c098375a0c2dfce3cb6275,1843,True,keypress,testresponse_l_J,676,['Longer'],choice-response,Longer,5fbc5590be36f3ba328bd883,300ms_delay_2_56,5145,71,maintaskTrials_2_l,maintaskTrials,2d961,1,0,True,5,2,6,FJ,Group
269,5f7d2e104bfca86e4f58ef9a,Group_FJ,0,2d961a38a72a6b510043072212505098cb92a930e9c098375a0c2dfce3cb6275,1843,True,keypress,testresponse_l_J,484,['Longer'],choice-response,Longer,5fbc5590be36f3ba328bd883,300ms_delay_2_86,4759,72,maintaskTrials_2_l,maintaskTrials,2d961,1,0,True,8,2,6,FJ,Group
270,5f7d2e104bfca86e4f58ef9a,Group_FJ,0,2d961a38a72a6b510043072212505098cb92a930e9c098375a0c2dfce3cb6275,1843,False,keypress,testresponse_l_J,1030,['Longer'],choice-response,Shorter,5fbc5590be36f3ba328bd883,300ms_delay_2_86,5440,73,maintaskTrials_2_l,maintaskTrials,2d961,0,1,True,8,2,6,FJ,Group
271,5f7d2e104bfca86e4f58ef9a,Group_FJ,0,2d961a38a72a6b510043072212505098cb92a930e9c098375a0c2dfce3cb6275,1843,False,keypress,testresponse_l_J,1078,['Longer'],choice-response,Shorter,5fbc5590be36f3ba328bd883,300ms_delay_2_56,5305,74,maintaskTrials_2_l,maintaskTrials,2d961,0,1,True,5,2,6,FJ,Group
272,5f7d2e104bfca86e4f58ef9a,Group_FJ,0,2d961a38a72a6b510043072212505098cb92a930e9c098375a0c2dfce3cb6275,1843,True,keypress,testresponse_s_F,1214,['Shorter'],choice-response,Shorter,5fbc5590be36f3ba328bd883,300ms_delay_2_81,5331,75,maintaskTrials_2_s,maintaskTrials,2d961,1,1,True,8,2,1,FJ,Group
273,5f7d2e104bfca86e4f58ef9a,Group_FJ,0,2d961a38a72a6b510043072212505098cb92a930e9c098375a0c2dfce3cb6275,1843,True,keypress,testresponse_l_J,1586,['Longer'],choice-response,Longer,5fbc5590be36f3ba328bd883,300ms_delay_2_85,8577,76,maintaskTrials_2_l,maintaskTrials,2d961,1,0,True,8,2,5,FJ,Group
274,5f7d2e104bfca86e4f58ef9a,Group_FJ,0,2d961a38a72a6b510043072212505098cb92a930e9c098375a0c2dfce3cb6275,1843,False,keypress,testresponse_s_F,450,['Shorter'],choice-response,Longer,5fbc5590be36f3ba328bd883,300ms_delay_2_91,4881,77,maintaskTrials_2_s,maintaskTrials,2d961,0,0,True,9,2,1,FJ,Group
275,5f7d2e104bfca86e4f58ef9a,Group_FJ,0,2d961a38a72a6b510043072212505098cb92a930e9c098375a0c2dfce3cb6275,1843,False,keypress,testresponse_s_F,445,['Shorter'],choice-response,Longer,5fbc5590be36f3ba328bd883,300ms_delay_2_82,4534,78,maintaskTrials_2_s,maintaskTrials,2d961,0,0,True,8,2,2,FJ,Group
276,5f7d2e104bfca86e4f58ef9a,Group_FJ,0,2d961a38a72a6b510043072212505098cb92a930e9c098375a0c2dfce3cb6275,1843,True,keypress,testresponse_s_F,703,['Shorter'],choice-response,Shorter,5fbc5590be36f3ba328bd883,300ms_delay_2_51,5140,79,maintaskTrials_2_s,maintaskTrials,2d961,1,1,True,5,2,1,FJ,Group
277,5f7d2e104bfca86e4f58ef9a,Group_FJ,0,2d961a38a72a6b510043072212505098cb92a930e9c098375a0c2dfce3cb6275,1843,True,keypress,testresponse_l_J,568,['Longer'],choice-response,Longer,5fbc5590be36f3ba328bd883,300ms_delay_2_96,5425,80,maintaskTrials_2_l,maintaskTrials,2d961,1,0,True,9,2,6,FJ,Group
278,5f7d2e104bfca86e4f58ef9a,Group_FJ,0,2d961a38a72a6b510043072212505098cb92a930e9c098375a0c2dfce3cb6275,1843,False,keypress,testresponse_s_F,723,['Shorter'],choice-response,Longer,5fbc5590be36f3ba328bd883,300ms_delay_2_83,4853,81,maintaskTrials_2_s,maintaskTrials,2d961,0,0,True,8,2,3,FJ,Group
279,5f7d2e104bfca86e4f58ef9a,Group_FJ,0,2d961a38a72a6b510043072212505098cb92a930e9c098375a0c2dfce3cb6275,1843,False,keypress,testresponse_l_J,1057,['Longer'],choice-response,Shorter,5fbc5590be36f3ba328bd883,300ms_delay_2_95,5557,82,maintaskTrials_2_l,maintaskTrials,2d961,0,1,True,9,2,5,FJ,Group
280,5f7d2e104bfca86e4f58ef9a,Group_FJ,0,2d961a38a72a6b510043072212505098cb92a930e9c098375a0c2dfce3cb6275,1843,False,keypress,testresponse_s_F,589,['Shorter'],choice-response,Longer,5fbc5590be36f3ba328bd883,300ms_delay_2_92,5224,83,maintaskTrials_2_s,maintaskTrials,2d961,0,0,True,9,2,2,FJ,Group
281,5f7d2e104bfca86e4f58ef9a,Group_FJ,0,2d961a38a72a6b510043072212505098cb92a930e9c098375a0c2dfce3cb6275,1843,True,keypress,testresponse_l_J,613,['Longer'],choice-response,Longer,5fbc5590be36f3ba328bd883,300ms_delay_2_94,4832,84,maintaskTrials_2_l,maintaskTrials,2d961,1,0,True,9,2,4,FJ,Group
282,5f7d2e104bfca86e4f58ef9a,Group_FJ,0,2d961a38a72a6b510043072212505098cb92a930e9c098375a0c2dfce3cb6275,1843,True,keypress,testresponse_s_F,587,['Shorter'],choice-response,Shorter,5fbc5590be36f3ba328bd883,300ms_delay_2_53,5251,85,maintaskTrials_2_s,maintaskTrials,2d961,1,1,True,5,2,3,FJ,Group
283,5f7d2e104bfca86e4f58ef9a,Group_FJ,0,2d961a38a72a6b510043072212505098cb92a930e9c098375a0c2dfce3cb6275,1843,True,keypress,testresponse_l_J,472,['Longer'],choice-response,Longer,5fbc5590be36f3ba328bd883,300ms_delay_2_84,4647,86,maintaskTrials_2_l,maintaskTrials,2d961,1,0,True,8,2,4,FJ,Group
284,5f7d2e104bfca86e4f58ef9a,Group_FJ,0,2d961a38a72a6b510043072212505098cb92a930e9c098375a0c2dfce3cb6275,1843,False,keypress,testresponse_s_F,474,['Shorter'],choice-response,Longer,5fbc5590be36f3ba328bd883,300ms_delay_2_93,4704,87,maintaskTrials_2_s,maintaskTrials,2d961,0,0,True,9,2,3,FJ,Group
285,5f7d2e104bfca86e4f58ef9a,Group_FJ,0,2d961a38a72a6b510043072212505098cb92a930e9c098375a0c2dfce3cb6275,1843,False,keypress,testresponse_l_J,371,['Longer'],choice-response,Shorter,5fbc5590be36f3ba328bd883,300ms_delay_2_54,4954,88,maintaskTrials_2_l,maintaskTrials,2d961,0,1,True,5,2,4,FJ,Group
286,5f7d2e104bfca86e4f58ef9a,Group_FJ,0,2d961a38a72a6b510043072212505098cb92a930e9c098375a0c2dfce3cb6275,1843,True,keypress,testresponse_s_F,626,['Shorter'],choice-response,Shorter,5fbc5590be36f3ba328bd883,300ms_delay_2_52,4628,89,maintaskTrials_2_s,maintaskTrials,2d961,1,1,True,5,2,2,FJ,Group
287,5f7d2e104bfca86e4f58ef9a,Group_FJ,0,2d961a38a72a6b510043072212505098cb92a930e9c098375a0c2dfce3cb6275,1843,True,keypress,testresponse_l_J,610,['Longer'],choice-response,Longer,5fbc5590be36f3ba328bd883,300ms_delay_2_55,5132,90,maintaskTrials_2_l,maintaskTrials,2d961,1,0,True,5,2,5,FJ,Group
288,5f7d2e104bfca86e4f58ef9a,Group_FJ,0,2d961a38a72a6b510043072212505098cb92a930e9c098375a0c2dfce3cb6275,1843,False,keypress,testresponse_s_F,409,['Shorter'],choice-response,Longer,5fbc5590be36f3ba328bd883,300ms_delay_2_92,5149,91,maintaskTrials_2_s,maintaskTrials,2d961,0,0,True,9,2,2,FJ,Group
289,5f7d2e104bfca86e4f58ef9a,Group_FJ,0,2d961a38a72a6b510043072212505098cb92a930e9c098375a0c2dfce3cb6275,1843,False,keypress,testresponse_s_F,438,['Shorter'],choice-response,Longer,5fbc5590be36f3ba328bd883,300ms_delay_2_81,4611,92,maintaskTrials_2_s,maintaskTrials,2d961,0,0,True,8,2,1,FJ,Group
290,5f7d2e104bfca86e4f58ef9a,Group_FJ,0,2d961a38a72a6b510043072212505098cb92a930e9c098375a0c2dfce3cb6275,1843,True,keypress,testresponse_l_J,652,['Longer'],choice-response,Longer,5fbc5590be36f3ba328bd883,300ms_delay_2_94,5285,93,maintaskTrials_2_l,maintaskTrials,2d961,1,0,True,9,2,4,FJ,Group
291,5f7d2e104bfca86e4f58ef9a,Group_FJ,0,2d961a38a72a6b510043072212505098cb92a930e9c098375a0c2dfce3cb6275,1843,False,keypress,testresponse_l_J,484,['Longer'],choice-response,Shorter,5fbc5590be36f3ba328bd883,300ms_delay_2_55,4530,94,maintaskTrials_2_l,maintaskTrials,2d961,0,1,True,5,2,5,FJ,Group
292,5f7d2e104bfca86e4f58ef9a,Group_FJ,0,2d961a38a72a6b510043072212505098cb92a930e9c098375a0c2dfce3cb6275,1843,True,keypress,testresponse_l_J,437,['Longer'],choice-response,Longer,5fbc5590be36f3ba328bd883,300ms_delay_2_96,5082,95,maintaskTrials_2_l,maintaskTrials,2d961,1,0,True,9,2,6,FJ,Group
293,5f7d2e104bfca86e4f58ef9a,Group_FJ,0,2d961a38a72a6b510043072212505098cb92a930e9c098375a0c2dfce3cb6275,1843,False,keypress,testresponse_s_F,356,['Shorter'],choice-response,Longer,5fbc5590be36f3ba328bd883,300ms_delay_2_83,4728,96,maintaskTrials_2_s,maintaskTrials,2d961,0,0,True,8,2,3,FJ,Group
294,5f7d2e104bfca86e4f58ef9a,Group_FJ,0,2d961a38a72a6b510043072212505098cb92a930e9c098375a0c2dfce3cb6275,1843,False,keypress,testresponse_s_F,499,['Shorter'],choice-response,Longer,5fbc5590be36f3ba328bd883,300ms_delay_2_82,4695,97,maintaskTrials_2_s,maintaskTrials,2d961,0,0,True,8,2,2,FJ,Group
295,5f7d2e104bfca86e4f58ef9a,Group_FJ,0,2d961a38a72a6b510043072212505098cb92a930e9c098375a0c2dfce3cb6275,1843,False,keypress,testresponse_l_J,1275,['Longer'],choice-response,Shorter,5fbc5590be36f3ba328bd883,300ms_delay_2_95,5950,98,maintaskTrials_2_l,maintaskTrials,2d961,0,1,True,9,2,5,FJ,Group
296,5f7d2e104bfca86e4f58ef9a,Group_FJ,0,2d961a38a72a6b510043072212505098cb92a930e9c098375a0c2dfce3cb6275,1843,False,keypress,testresponse_s_F,1040,['Shorter'],choice-response,Longer,5fbc5590be36f3ba328bd883,300ms_delay_2_93,5780,99,maintaskTrials_2_s,maintaskTrials,2d961,0,0,True,9,2,3,FJ,Group
297,5f7d2e104bfca86e4f58ef9a,Group_FJ,0,2d961a38a72a6b510043072212505098cb92a930e9c098375a0c2dfce3cb6275,1843,True,keypress,testresponse_s_F,512,['Shorter'],choice-response,Shorter,5fbc5590be36f3ba328bd883,300ms_delay_2_52,4538,100,maintaskTrials_2_s,maintaskTrials,2d961,1,1,True,5,2,2,FJ,Group
298,5f7d2e104bfca86e4f58ef9a,Group_FJ,0,2d961a38a72a6b510043072212505098cb92a930e9c098375a0c2dfce3cb6275,1843,False,keypress,testresponse_l_J,994,['Longer'],choice-response,Shorter,5fbc5590be36f3ba328bd883,300ms_delay_2_85,5299,101,maintaskTrials_2_l,maintaskTrials,2d961,0,1,True,8,2,5,FJ,Group
299,5f7d2e104bfca86e4f58ef9a,Group_FJ,0,2d961a38a72a6b510043072212505098cb92a930e9c098375a0c2dfce3cb6275,1843,False,keypress,testresponse_l_J,1128,['Longer'],choice-response,Shorter,5fbc5590be36f3ba328bd883,300ms_delay_2_86,5723,102,maintaskTrials_2_l,maintaskTrials,2d961,0,1,True,8,2,6,FJ,Group
300,5f7d2e104bfca86e4f58ef9a,Group_FJ,0,2d961a38a72a6b510043072212505098cb92a930e9c098375a0c2dfce3cb6275,1843,True,keypress,testresponse_s_F,1031,['Shorter'],choice-response,Shorter,5fbc5590be36f3ba328bd883,300ms_delay_2_53,5212,103,maintaskTrials_2_s,maintaskTrials,2d961,1,1,True,5,2,3,FJ,Group
301,5f7d2e104bfca86e4f58ef9a,Group_FJ,0,2d961a38a72a6b510043072212505098cb92a930e9c098375a0c2dfce3cb6275,1843,True,keypress,testresponse_l_J,1596,['Longer'],choice-response,Longer,5fbc5590be36f3ba328bd883,300ms_delay_2_54,6116,104,maintaskTrials_2_l,maintaskTrials,2d961,1,0,True,5,2,4,FJ,Group
302,5f7d2e104bfca86e4f58ef9a,Group_FJ,0,2d961a38a72a6b510043072212505098cb92a930e9c098375a0c2dfce3cb6275,1843,False,keypress,testresponse_s_F,494,['Shorter'],choice-response,Longer,5fbc5590be36f3ba328bd883,300ms_delay_2_91,5174,105,maintaskTrials_2_s,maintaskTrials,2d961,0,0,True,9,2,1,FJ,Group
303,5f7d2e104bfca86e4f58ef9a,Group_FJ,0,2d961a38a72a6b510043072212505098cb92a930e9c098375a0c2dfce3cb6275,1843,False,keypress,testresponse_l_J,389,['Longer'],choice-response,Shorter,5fbc5590be36f3ba328bd883,300ms_delay_2_56,4401,106,maintaskTrials_2_l,maintaskTrials,2d961,0,1,True,5,2,6,FJ,Group
304,5f7d2e104bfca86e4f58ef9a,Group_FJ,0,2d961a38a72a6b510043072212505098cb92a930e9c098375a0c2dfce3cb6275,1843,True,keypress,testresponse_s_F,640,['Shorter'],choice-response,Shorter,5fbc5590be36f3ba328bd883,300ms_delay_2_51,5044,107,maintaskTrials_2_s,maintaskTrials,2d961,1,1,True,5,2,1,FJ,Group
305,5f7d2e104bfca86e4f58ef9a,Group_FJ,0,2d961a38a72a6b510043072212505098cb92a930e9c098375a0c2dfce3cb6275,1843,True,keypress,testresponse_l_J,380,['Longer'],choice-response,Longer,5fbc5590be36f3ba328bd883,300ms_delay_2_84,4546,108,maintaskTrials_2_l,maintaskTrials,2d961,1,0,True,8,2,4,FJ,Group
306,5f7d2e104bfca86e4f58ef9a,Group_FJ,0,2d961a38a72a6b510043072212505098cb92a930e9c098375a0c2dfce3cb6275,1843,False,keypress,testresponse_s_F,351,['Shorter'],choice-response,Longer,5fbc5590be36f3ba328bd883,300ms_delay_2_53,4949,109,maintaskTrials_2_s,maintaskTrials,2d961,0,0,True,5,2,3,FJ,Group
307,5f7d2e104bfca86e4f58ef9a,Group_FJ,0,2d961a38a72a6b510043072212505098cb92a930e9c098375a0c2dfce3cb6275,1843,True,keypress,testresponse_l_J,259,['Longer'],choice-response,Longer,5fbc5590be36f3ba328bd883,300ms_delay_2_96,4879,110,maintaskTrials_2_l,maintaskTrials,2d961,1,0,True,9,2,6,FJ,Group
308,5f7d2e104bfca86e4f58ef9a,Group_FJ,0,2d961a38a72a6b510043072212505098cb92a930e9c098375a0c2dfce3cb6275,1843,True,keypress,testresponse_l_J,421,['Longer'],choice-response,Longer,5fbc5590be36f3ba328bd883,300ms_delay_2_86,4652,111,maintaskTrials_2_l,maintaskTrials,2d961,1,0,True,8,2,6,FJ,Group
309,5f7d2e104bfca86e4f58ef9a,Group_FJ,0,2d961a38a72a6b510043072212505098cb92a930e9c098375a0c2dfce3cb6275,1843,True,keypress,testresponse_l_J,379,['Longer'],choice-response,Longer,5fbc5590be36f3ba328bd883,300ms_delay_2_95,5085,112,maintaskTrials_2_l,maintaskTrials,2d961,1,0,True,9,2,5,FJ,Group
310,5f7d2e104bfca86e4f58ef9a,Group_FJ,0,2d961a38a72a6b510043072212505098cb92a930e9c098375a0c2dfce3cb6275,1843,True,keypress,testresponse_l_J,226,['Longer'],choice-response,Longer,5fbc5590be36f3ba328bd883,300ms_delay_2_84,4426,113,maintaskTrials_2_l,maintaskTrials,2d961,1,0,True,8,2,4,FJ,Group
311,5f7d2e104bfca86e4f58ef9a,Group_FJ,0,2d961a38a72a6b510043072212505098cb92a930e9c098375a0c2dfce3cb6275,1843,False,keypress,testresponse_s_F,244,['Shorter'],choice-response,Longer,5fbc5590be36f3ba328bd883,300ms_delay_2_93,4458,114,maintaskTrials_2_s,maintaskTrials,2d961,0,0,True,9,2,3,FJ,Group
312,5f7d2e104bfca86e4f58ef9a,Group_FJ,0,2d961a38a72a6b510043072212505098cb92a930e9c098375a0c2dfce3cb6275,1843,True,keypress,testresponse_l_J,298,['Longer'],choice-response,Longer,5fbc5590be36f3ba328bd883,300ms_delay_2_85,4648,115,maintaskTrials_2_l,maintaskTrials,2d961,1,0,True,8,2,5,FJ,Group
313,5f7d2e104bfca86e4f58ef9a,Group_FJ,0,2d961a38a72a6b510043072212505098cb92a930e9c098375a0c2dfce3cb6275,1843,True,keypress,testresponse_s_F,372,['Shorter'],choice-response,Shorter,5fbc5590be36f3ba328bd883,300ms_delay_2_51,4462,116,maintaskTrials_2_s,maintaskTrials,2d961,1,1,True,5,2,1,FJ,Group
314,5f7d2e104bfca86e4f58ef9a,Group_FJ,0,2d961a38a72a6b510043072212505098cb92a930e9c098375a0c2dfce3cb6275,1843,False,keypress,testresponse_l_J,761,['Longer'],choice-response,Shorter,5fbc5590be36f3ba328bd883,300ms_delay_2_56,5259,117,maintaskTrials_2_l,maintaskTrials,2d961,0,1,True,5,2,6,FJ,Group
315,5f7d2e104bfca86e4f58ef9a,Group_FJ,0,2d961a38a72a6b510043072212505098cb92a930e9c098375a0c2dfce3cb6275,1843,True,keypress,testresponse_s_F,579,['Shorter'],choice-response,Shorter,5fbc5590be36f3ba328bd883,300ms_delay_2_81,4694,118,maintaskTrials_2_s,maintaskTrials,2d961,1,1,True,8,2,1,FJ,Group
316,5f7d2e104bfca86e4f58ef9a,Group_FJ,0,2d961a38a72a6b510043072212505098cb92a930e9c098375a0c2dfce3cb6275,1843,False,keypress,testresponse_l_J,1316,['Longer'],choice-response,Shorter,5fbc5590be36f3ba328bd883,300ms_delay_2_54,5801,119,maintaskTrials_2_l,maintaskTrials,2d961,0,1,True,5,2,4,FJ,Group
317,5f7d2e104bfca86e4f58ef9a,Group_FJ,0,2d961a38a72a6b510043072212505098cb92a930e9c098375a0c2dfce3cb6275,1843,True,keypress,testresponse_l_J,697,['Longer'],choice-response,Longer,5fbc5590be36f3ba328bd883,300ms_delay_2_94,5083,120,maintaskTrials_2_l,maintaskTrials,2d961,1,0,True,9,2,4,FJ,Group
318,5f7d2e104bfca86e4f58ef9a,Group_FJ,0,2d961a38a72a6b510043072212505098cb92a930e9c098375a0c2dfce3cb6275,1843,False,keypress,testresponse_s_F,542,['Shorter'],choice-response,Longer,5fbc5590be36f3ba328bd883,300ms_delay_2_83,4645,121,maintaskTrials_2_s,maintaskTrials,2d961,0,0,True,8,2,3,FJ,Group
319,5f7d2e104bfca86e4f58ef9a,Group_FJ,0,2d961a38a72a6b510043072212505098cb92a930e9c098375a0c2dfce3cb6275,1843,False,keypress,testresponse_s_F,405,['Shorter'],choice-response,Longer,5fbc5590be36f3ba328bd883,300ms_delay_2_52,4846,122,maintaskTrials_2_s,maintaskTrials,2d961,0,0,True,5,2,2,FJ,Group
320,5f7d2e104bfca86e4f58ef9a,Group_FJ,0,2d961a38a72a6b510043072212505098cb92a930e9c098375a0c2dfce3cb6275,1843,False,keypress,testresponse_s_F,521,['Shorter'],choice-response,Longer,5fbc5590be36f3ba328bd883,300ms_delay_2_91,5182,123,maintaskTrials_2_s,maintaskTrials,2d961,0,0,True,9,2,1,FJ,Group
321,5f7d2e104bfca86e4f58ef9a,Group_FJ,0,2d961a38a72a6b510043072212505098cb92a930e9c098375a0c2dfce3cb6275,1843,True,keypress,testresponse_l_J,811,['Longer'],choice-response,Longer,5fbc5590be36f3ba328bd883,300ms_delay_2_55,4868,124,maintaskTrials_2_l,maintaskTrials,2d961,1,0,True,5,2,5,FJ,Group
322,5f7d2e104bfca86e4f58ef9a,Group_FJ,0,2d961a38a72a6b510043072212505098cb92a930e9c098375a0c2dfce3cb6275,1843,False,keypress,testresponse_s_F,268,['Shorter'],choice-response,Longer,5fbc5590be36f3ba328bd883,300ms_delay_2_82,4556,125,maintaskTrials_2_s,maintaskTrials,2d961,0,0,True,8,2,2,FJ,Group
323,5f7d2e104bfca86e4f58ef9a,Group_FJ,0,2d961a38a72a6b510043072212505098cb92a930e9c098375a0c2dfce3cb6275,1843,True,keypress,testresponse_s_F,847,['Shorter'],choice-response,Shorter,5fbc5590be36f3ba328bd883,300ms_delay_2_92,5063,126,maintaskTrials_2_s,maintaskTrials,2d961,1,1,True,9,2,2,FJ,Group
324,5f7d2e104bfca86e4f58ef9a,Group_FJ,0,2d961a38a72a6b510043072212505098cb92a930e9c098375a0c2dfce3cb6275,1843,True,keypress,testresponse_s_F,820,['Shorter'],choice-response,Shorter,5fbc5590be36f3ba328bd883,300ms_delay_2_81,5004,127,maintaskTrials_2_s,maintaskTrials,2d961,1,1,True,8,2,1,FJ,Group
325,5f7d2e104bfca86e4f58ef9a,Group_FJ,0,2d961a38a72a6b510043072212505098cb92a930e9c098375a0c2dfce3cb6275,1843,True,keypress,testresponse_s_F,513,['Shorter'],choice-response,Shorter,5fbc5590be36f3ba328bd883,300ms_delay_2_51,4545,128,maintaskTrials_2_s,maintaskTrials,2d961,1,1,True,5,2,1,FJ,Group
326,5f7d2e104bfca86e4f58ef9a,Group_FJ,0,2d961a38a72a6b510043072212505098cb92a930e9c098375a0c2dfce3cb6275,1843,False,keypress,testresponse_s_F,479,['Shorter'],choice-response,Longer,5fbc5590be36f3ba328bd883,300ms_delay_2_91,4973,129,maintaskTrials_2_s,maintaskTrials,2d961,0,0,True,9,2,1,FJ,Group
327,5f7d2e104bfca86e4f58ef9a,Group_FJ,0,2d961a38a72a6b510043072212505098cb92a930e9c098375a0c2dfce3cb6275,1843,True,keypress,testresponse_l_J,781,['Longer'],choice-response,Longer,5fbc5590be36f3ba328bd883,300ms_delay_2_96,5005,130,maintaskTrials_2_l,maintaskTrials,2d961,1,0,True,9,2,6,FJ,Group
328,5f7d2e104bfca86e4f58ef9a,Group_FJ,0,2d961a38a72a6b510043072212505098cb92a930e9c098375a0c2dfce3cb6275,1843,False,keypress,testresponse_s_F,393,['Shorter'],choice-response,Longer,5fbc5590be36f3ba328bd883,300ms_delay_2_92,5074,131,maintaskTrials_2_s,maintaskTrials,2d961,0,0,True,9,2,2,FJ,Group
329,5f7d2e104bfca86e4f58ef9a,Group_FJ,0,2d961a38a72a6b510043072212505098cb92a930e9c098375a0c2dfce3cb6275,1843,False,keypress,testresponse_l_J,1225,['Longer'],choice-response,Shorter,5fbc5590be36f3ba328bd883,300ms_delay_2_84,5529,132,maintaskTrials_2_l,maintaskTrials,2d961,0,1,True,8,2,4,FJ,Group
