,index,expt_id,group_id,network_error_repeat,participant_id,participation_duration,response_correct,response_mode,response_name,response_rt,response_target,response_type,response_value,session_id,session_start_time,stimuli_presented,trial_duration,trial_num,trial_template,task,sub_id,exp,Correct,Shorter,Length
0,565,6345b7f49677d36bd07c5a10,EXP9b_JF,0,2d2b41d2615bf622cbfc5888bb10c59e720e0c77c3cd519fda7b9c8fc105f986,2352.241167,False,keypress,EXP9b_testRsp_rv,176,[],choice-response,Longer,655e73d1a60ad4b436a1357f,2023-11-22 16:34:02-05:00,tone_Lab,2193,566,PrescreenTrials_tones_rv,PrescreenTrials,2d2b4,EXP9b,0,0,8
1,566,6345b7f49677d36bd07c5a10,EXP9b_JF,0,2d2b41d2615bf622cbfc5888bb10c59e720e0c77c3cd519fda7b9c8fc105f986,2352.241167,False,keypress,EXP9b_testRsp_rv,224,[],choice-response,Shorter,655e73d1a60ad4b436a1357f,2023-11-22 16:34:02-05:00,tone_Fat,1466,567,PrescreenTrials_tones_rv,PrescreenTrials,2d2b4,EXP9b,0,1,8
2,567,6345b7f49677d36bd07c5a10,EXP9b_JF,0,2d2b41d2615bf622cbfc5888bb10c59e720e0c77c3cd519fda7b9c8fc105f986,2352.241167,False,keypress,EXP9b_testRsp_rv,283,[],choice-response,Shorter,655e73d1a60ad4b436a1357f,2023-11-22 16:34:02-05:00,tone_Back,1371,568,PrescreenTrials_tones_rv,PrescreenTrials,2d2b4,EXP9b,0,1,8
3,568,6345b7f49677d36bd07c5a10,EXP9b_JF,0,2d2b41d2615bf622cbfc5888bb10c59e720e0c77c3cd519fda7b9c8fc105f986,2352.241167,False,keypress,EXP9b_testRsp_rv,201,[],choice-response,Longer,655e73d1a60ad4b436a1357f,2023-11-22 16:34:02-05:00,tone_Bead,1543,569,PrescreenTrials_tones_rv,PrescreenTrials,2d2b4,EXP9b,0,0,8
4,569,6345b7f49677d36bd07c5a10,EXP9b_JF,0,2d2b41d2615bf622cbfc5888bb10c59e720e0c77c3cd519fda7b9c8fc105f986,2352.241167,False,keypress,EXP9b_testRsp_rv,275,[],choice-response,Shorter,655e73d1a60ad4b436a1357f,2023-11-22 16:34:02-05:00,tone_Lack,1311,570,PrescreenTrials_tones_rv,PrescreenTrials,2d2b4,EXP9b,0,1,8
5,570,6345b7f49677d36bd07c5a10,EXP9b_JF,0,2d2b41d2615bf622cbfc5888bb10c59e720e0c77c3cd519fda7b9c8fc105f986,2352.241167,False,keypress,EXP9b_testRsp_rv,232,[],choice-response,Longer,655e73d1a60ad4b436a1357f,2023-11-22 16:34:02-05:00,tone_Bag,1676,571,PrescreenTrials_tones_rv,PrescreenTrials,2d2b4,EXP9b,0,0,8
6,571,6345b7f49677d36bd07c5a10,EXP9b_JF,0,2d2b41d2615bf622cbfc5888bb10c59e720e0c77c3cd519fda7b9c8fc105f986,2352.241167,False,keypress,EXP9b_testRsp_rv,281,[],choice-response,Shorter,655e73d1a60ad4b436a1357f,2023-11-22 16:34:02-05:00,tone_Lap,1534,572,PrescreenTrials_tones_rv,PrescreenTrials,2d2b4,EXP9b,0,1,8
7,572,6345b7f49677d36bd07c5a10,EXP9b_JF,0,2d2b41d2615bf622cbfc5888bb10c59e720e0c77c3cd519fda7b9c8fc105f986,2352.241167,False,keypress,EXP9b_testRsp_rv,178,[],choice-response,Longer,655e73d1a60ad4b436a1357f,2023-11-22 16:34:02-05:00,tone_Lag,1558,573,PrescreenTrials_tones_rv,PrescreenTrials,2d2b4,EXP9b,0,0,8
8,573,6345b7f49677d36bd07c5a10,EXP9b_JF,0,2d2b41d2615bf622cbfc5888bb10c59e720e0c77c3cd519fda7b9c8fc105f986,2352.241167,False,keypress,EXP9b_testRsp_rv,292,[],choice-response,Longer,655e73d1a60ad4b436a1357f,2023-11-22 16:34:02-05:00,tone_Cab,1883,574,PrescreenTrials_tones_rv,PrescreenTrials,2d2b4,EXP9b,0,0,8
9,574,6345b7f49677d36bd07c5a10,EXP9b_JF,0,2d2b41d2615bf622cbfc5888bb10c59e720e0c77c3cd519fda7b9c8fc105f986,2352.241167,False,keypress,EXP9b_testRsp_rv,339,[],choice-response,Longer,655e73d1a60ad4b436a1357f,2023-11-22 16:34:02-05:00,tone_Fad,2121,575,PrescreenTrials_tones_rv,PrescreenTrials,2d2b4,EXP9b,0,0,8
10,575,6345b7f49677d36bd07c5a10,EXP9b_JF,0,2d2b41d2615bf622cbfc5888bb10c59e720e0c77c3cd519fda7b9c8fc105f986,2352.241167,False,keypress,EXP9b_testRsp_rv,239,[],choice-response,Shorter,655e73d1a60ad4b436a1357f,2023-11-22 16:34:02-05:00,tone_Beat,1396,576,PrescreenTrials_tones_rv,PrescreenTrials,2d2b4,EXP9b,0,1,8
11,576,6345b7f49677d36bd07c5a10,EXP9b_JF,0,2d2b41d2615bf622cbfc5888bb10c59e720e0c77c3cd519fda7b9c8fc105f986,2352.241167,False,keypress,EXP9b_testRsp_rv,310,[],choice-response,Shorter,655e73d1a60ad4b436a1357f,2023-11-22 16:34:02-05:00,tone_Cap,1408,577,PrescreenTrials_tones_rv,PrescreenTrials,2d2b4,EXP9b,0,1,8
12,577,6345b7f49677d36bd07c5a10,EXP9b_JF,0,2d2b41d2615bf622cbfc5888bb10c59e720e0c77c3cd519fda7b9c8fc105f986,2352.241167,False,keypress,EXP9b_testRsp_rv,78,[],choice-response,Longer,655e73d1a60ad4b436a1357f,2023-11-22 16:34:02-05:00,tone_Bead,1126,578,PrescreenTrials_tones_rv,PrescreenTrials,2d2b4,EXP9b,0,0,8
13,578,6345b7f49677d36bd07c5a10,EXP9b_JF,0,2d2b41d2615bf622cbfc5888bb10c59e720e0c77c3cd519fda7b9c8fc105f986,2352.241167,False,keypress,EXP9b_testRsp_rv,341,[],choice-response,Shorter,655e73d1a60ad4b436a1357f,2023-11-22 16:34:02-05:00,tone_Cap,1154,579,PrescreenTrials_tones_rv,PrescreenTrials,2d2b4,EXP9b,0,1,8
14,579,6345b7f49677d36bd07c5a10,EXP9b_JF,0,2d2b41d2615bf622cbfc5888bb10c59e720e0c77c3cd519fda7b9c8fc105f986,2352.241167,False,keypress,EXP9b_testRsp_rv,127,[],choice-response,Shorter,655e73d1a60ad4b436a1357f,2023-11-22 16:34:02-05:00,tone_Beat,961,580,PrescreenTrials_tones_rv,PrescreenTrials,2d2b4,EXP9b,0,1,8
15,580,6345b7f49677d36bd07c5a10,EXP9b_JF,0,2d2b41d2615bf622cbfc5888bb10c59e720e0c77c3cd519fda7b9c8fc105f986,2352.241167,False,keypress,EXP9b_testRsp_rv,241,[],choice-response,Shorter,655e73d1a60ad4b436a1357f,2023-11-22 16:34:02-05:00,tone_Lack,1060,581,PrescreenTrials_tones_rv,PrescreenTrials,2d2b4,EXP9b,0,1,8
16,581,6345b7f49677d36bd07c5a10,EXP9b_JF,0,2d2b41d2615bf622cbfc5888bb10c59e720e0c77c3cd519fda7b9c8fc105f986,2352.241167,False,keypress,EXP9b_testRsp_rv,167,[],choice-response,Longer,655e73d1a60ad4b436a1357f,2023-11-22 16:34:02-05:00,tone_Cab,1180,582,PrescreenTrials_tones_rv,PrescreenTrials,2d2b4,EXP9b,0,0,8
17,582,6345b7f49677d36bd07c5a10,EXP9b_JF,0,2d2b41d2615bf622cbfc5888bb10c59e720e0c77c3cd519fda7b9c8fc105f986,2352.241167,False,keypress,EXP9b_testRsp_rv,225,[],choice-response,Longer,655e73d1a60ad4b436a1357f,2023-11-22 16:34:02-05:00,tone_Bag,1212,583,PrescreenTrials_tones_rv,PrescreenTrials,2d2b4,EXP9b,0,0,8
18,583,6345b7f49677d36bd07c5a10,EXP9b_JF,0,2d2b41d2615bf622cbfc5888bb10c59e720e0c77c3cd519fda7b9c8fc105f986,2352.241167,False,keypress,EXP9b_testRsp_rv,288,[],choice-response,Longer,655e73d1a60ad4b436a1357f,2023-11-22 16:34:02-05:00,tone_Lag,1318,584,PrescreenTrials_tones_rv,PrescreenTrials,2d2b4,EXP9b,0,0,8
19,584,6345b7f49677d36bd07c5a10,EXP9b_JF,0,2d2b41d2615bf622cbfc5888bb10c59e720e0c77c3cd519fda7b9c8fc105f986,2352.241167,False,keypress,EXP9b_testRsp_rv,323,[],choice-response,Shorter,655e73d1a60ad4b436a1357f,2023-11-22 16:34:02-05:00,tone_Back,1117,585,PrescreenTrials_tones_rv,PrescreenTrials,2d2b4,EXP9b,0,1,8
20,585,6345b7f49677d36bd07c5a10,EXP9b_JF,0,2d2b41d2615bf622cbfc5888bb10c59e720e0c77c3cd519fda7b9c8fc105f986,2352.241167,False,keypress,EXP9b_testRsp_rv,73,[],choice-response,Longer,655e73d1a60ad4b436a1357f,2023-11-22 16:34:02-05:00,tone_Lab,1099,586,PrescreenTrials_tones_rv,PrescreenTrials,2d2b4,EXP9b,0,0,8
21,586,6345b7f49677d36bd07c5a10,EXP9b_JF,0,2d2b41d2615bf622cbfc5888bb10c59e720e0c77c3cd519fda7b9c8fc105f986,2352.241167,False,keypress,EXP9b_testRsp_rv,151,[],choice-response,Longer,655e73d1a60ad4b436a1357f,2023-11-22 16:34:02-05:00,tone_Fad,1332,587,PrescreenTrials_tones_rv,PrescreenTrials,2d2b4,EXP9b,0,0,8
22,587,6345b7f49677d36bd07c5a10,EXP9b_JF,0,2d2b41d2615bf622cbfc5888bb10c59e720e0c77c3cd519fda7b9c8fc105f986,2352.241167,False,keypress,EXP9b_testRsp_rv,328,[],choice-response,Shorter,655e73d1a60ad4b436a1357f,2023-11-22 16:34:02-05:00,tone_Fat,1318,588,PrescreenTrials_tones_rv,PrescreenTrials,2d2b4,EXP9b,0,1,8
23,588,6345b7f49677d36bd07c5a10,EXP9b_JF,0,2d2b41d2615bf622cbfc5888bb10c59e720e0c77c3cd519fda7b9c8fc105f986,2352.241167,False,keypress,EXP9b_testRsp_rv,302,[],choice-response,Shorter,655e73d1a60ad4b436a1357f,2023-11-22 16:34:02-05:00,tone_Lap,1109,589,PrescreenTrials_tones_rv,PrescreenTrials,2d2b4,EXP9b,0,1,8
24,589,6345b7f49677d36bd07c5a10,EXP9b_JF,0,2d2b41d2615bf622cbfc5888bb10c59e720e0c77c3cd519fda7b9c8fc105f986,2352.241167,False,keypress,EXP9b_testRsp_rv,124,[],choice-response,Longer,655e73d1a60ad4b436a1357f,2023-11-22 16:34:02-05:00,tone_Lag,1146,590,PrescreenTrials_tones_rv,PrescreenTrials,2d2b4,EXP9b,0,0,8
25,590,6345b7f49677d36bd07c5a10,EXP9b_JF,0,2d2b41d2615bf622cbfc5888bb10c59e720e0c77c3cd519fda7b9c8fc105f986,2352.241167,False,keypress,EXP9b_testRsp_rv,26,[],choice-response,Longer,655e73d1a60ad4b436a1357f,2023-11-22 16:34:02-05:00,tone_Fad,1211,591,PrescreenTrials_tones_rv,PrescreenTrials,2d2b4,EXP9b,0,0,8
26,591,6345b7f49677d36bd07c5a10,EXP9b_JF,0,2d2b41d2615bf622cbfc5888bb10c59e720e0c77c3cd519fda7b9c8fc105f986,2352.241167,False,keypress,EXP9b_testRsp_rv,206,[],choice-response,Longer,655e73d1a60ad4b436a1357f,2023-11-22 16:34:02-05:00,tone_Lab,1237,592,PrescreenTrials_tones_rv,PrescreenTrials,2d2b4,EXP9b,0,0,8
27,592,6345b7f49677d36bd07c5a10,EXP9b_JF,0,2d2b41d2615bf622cbfc5888bb10c59e720e0c77c3cd519fda7b9c8fc105f986,2352.241167,False,keypress,EXP9b_testRsp_rv,312,[],choice-response,Longer,655e73d1a60ad4b436a1357f,2023-11-22 16:34:02-05:00,tone_Bead,1365,593,PrescreenTrials_tones_rv,PrescreenTrials,2d2b4,EXP9b,0,0,8
28,593,6345b7f49677d36bd07c5a10,EXP9b_JF,0,2d2b41d2615bf622cbfc5888bb10c59e720e0c77c3cd519fda7b9c8fc105f986,2352.241167,False,keypress,EXP9b_testRsp_rv,257,[],choice-response,Shorter,655e73d1a60ad4b436a1357f,2023-11-22 16:34:02-05:00,tone_Beat,1082,594,PrescreenTrials_tones_rv,PrescreenTrials,2d2b4,EXP9b,0,1,8
29,594,6345b7f49677d36bd07c5a10,EXP9b_JF,0,2d2b41d2615bf622cbfc5888bb10c59e720e0c77c3cd519fda7b9c8fc105f986,2352.241167,False,keypress,EXP9b_testRsp_rv,444,[],choice-response,Shorter,655e73d1a60ad4b436a1357f,2023-11-22 16:34:02-05:00,tone_Lack,1261,595,PrescreenTrials_tones_rv,PrescreenTrials,2d2b4,EXP9b,0,1,8
30,595,6345b7f49677d36bd07c5a10,EXP9b_JF,0,2d2b41d2615bf622cbfc5888bb10c59e720e0c77c3cd519fda7b9c8fc105f986,2352.241167,False,keypress,EXP9b_testRsp_rv,316,[],choice-response,Shorter,655e73d1a60ad4b436a1357f,2023-11-22 16:34:02-05:00,tone_Back,1100,596,PrescreenTrials_tones_rv,PrescreenTrials,2d2b4,EXP9b,0,1,8
31,596,6345b7f49677d36bd07c5a10,EXP9b_JF,0,2d2b41d2615bf622cbfc5888bb10c59e720e0c77c3cd519fda7b9c8fc105f986,2352.241167,False,keypress,EXP9b_testRsp_rv,325,[],choice-response,Shorter,655e73d1a60ad4b436a1357f,2023-11-22 16:34:02-05:00,tone_Lap,1136,597,PrescreenTrials_tones_rv,PrescreenTrials,2d2b4,EXP9b,0,1,8
32,597,6345b7f49677d36bd07c5a10,EXP9b_JF,0,2d2b41d2615bf622cbfc5888bb10c59e720e0c77c3cd519fda7b9c8fc105f986,2352.241167,False,keypress,EXP9b_testRsp_rv,186,[],choice-response,Longer,655e73d1a60ad4b436a1357f,2023-11-22 16:34:02-05:00,tone_Bag,1171,598,PrescreenTrials_tones_rv,PrescreenTrials,2d2b4,EXP9b,0,0,8
33,598,6345b7f49677d36bd07c5a10,EXP9b_JF,0,2d2b41d2615bf622cbfc5888bb10c59e720e0c77c3cd519fda7b9c8fc105f986,2352.241167,False,keypress,EXP9b_testRsp_rv,387,[],choice-response,Shorter,655e73d1a60ad4b436a1357f,2023-11-22 16:34:02-05:00,tone_Fat,1374,599,PrescreenTrials_tones_rv,PrescreenTrials,2d2b4,EXP9b,0,1,8
34,599,6345b7f49677d36bd07c5a10,EXP9b_JF,0,2d2b41d2615bf622cbfc5888bb10c59e720e0c77c3cd519fda7b9c8fc105f986,2352.241167,False,keypress,EXP9b_testRsp_rv,167,[],choice-response,Longer,655e73d1a60ad4b436a1357f,2023-11-22 16:34:02-05:00,tone_Cab,1179,600,PrescreenTrials_tones_rv,PrescreenTrials,2d2b4,EXP9b,0,0,8
35,600,6345b7f49677d36bd07c5a10,EXP9b_JF,0,2d2b41d2615bf622cbfc5888bb10c59e720e0c77c3cd519fda7b9c8fc105f986,2352.241167,False,keypress,EXP9b_testRsp_rv,286,[],choice-response,Shorter,655e73d1a60ad4b436a1357f,2023-11-22 16:34:02-05:00,tone_Cap,1110,601,PrescreenTrials_tones_rv,PrescreenTrials,2d2b4,EXP9b,0,1,8
36,601,6345b7f49677d36bd07c5a10,EXP9b_JF,0,2d2b41d2615bf622cbfc5888bb10c59e720e0c77c3cd519fda7b9c8fc105f986,2352.241167,False,keypress,EXP9b_testRsp_rv,248,[],choice-response,Longer,655e73d1a60ad4b436a1357f,2023-11-22 16:34:02-05:00,tone_Fad,1426,602,PrescreenTrials_tones_rv,PrescreenTrials,2d2b4,EXP9b,0,0,8
37,602,6345b7f49677d36bd07c5a10,EXP9b_JF,0,2d2b41d2615bf622cbfc5888bb10c59e720e0c77c3cd519fda7b9c8fc105f986,2352.241167,False,keypress,EXP9b_testRsp_rv,209,[],choice-response,Longer,655e73d1a60ad4b436a1357f,2023-11-22 16:34:02-05:00,tone_Bag,1195,603,PrescreenTrials_tones_rv,PrescreenTrials,2d2b4,EXP9b,0,0,8
38,603,6345b7f49677d36bd07c5a10,EXP9b_JF,0,2d2b41d2615bf622cbfc5888bb10c59e720e0c77c3cd519fda7b9c8fc105f986,2352.241167,False,keypress,EXP9b_testRsp_rv,203,[],choice-response,Longer,655e73d1a60ad4b436a1357f,2023-11-22 16:34:02-05:00,tone_Bead,1258,604,PrescreenTrials_tones_rv,PrescreenTrials,2d2b4,EXP9b,0,0,8
39,604,6345b7f49677d36bd07c5a10,EXP9b_JF,0,2d2b41d2615bf622cbfc5888bb10c59e720e0c77c3cd519fda7b9c8fc105f986,2352.241167,False,keypress,EXP9b_testRsp_rv,397,[],choice-response,Shorter,655e73d1a60ad4b436a1357f,2023-11-22 16:34:02-05:00,tone_Lack,1220,605,PrescreenTrials_tones_rv,PrescreenTrials,2d2b4,EXP9b,0,1,8
40,605,6345b7f49677d36bd07c5a10,EXP9b_JF,0,2d2b41d2615bf622cbfc5888bb10c59e720e0c77c3cd519fda7b9c8fc105f986,2352.241167,False,keypress,EXP9b_testRsp_rv,158,[],choice-response,Longer,655e73d1a60ad4b436a1357f,2023-11-22 16:34:02-05:00,tone_Cab,1170,606,PrescreenTrials_tones_rv,PrescreenTrials,2d2b4,EXP9b,0,0,8
41,606,6345b7f49677d36bd07c5a10,EXP9b_JF,0,2d2b41d2615bf622cbfc5888bb10c59e720e0c77c3cd519fda7b9c8fc105f986,2352.241167,False,keypress,EXP9b_testRsp_rv,258,[],choice-response,Shorter,655e73d1a60ad4b436a1357f,2023-11-22 16:34:02-05:00,tone_Lap,1073,607,PrescreenTrials_tones_rv,PrescreenTrials,2d2b4,EXP9b,0,1,8
42,607,6345b7f49677d36bd07c5a10,EXP9b_JF,0,2d2b41d2615bf622cbfc5888bb10c59e720e0c77c3cd519fda7b9c8fc105f986,2352.241167,False,keypress,EXP9b_testRsp_rv,150,[],choice-response,Longer,655e73d1a60ad4b436a1357f,2023-11-22 16:34:02-05:00,tone_Lab,1174,608,PrescreenTrials_tones_rv,PrescreenTrials,2d2b4,EXP9b,0,0,8
43,608,6345b7f49677d36bd07c5a10,EXP9b_JF,0,2d2b41d2615bf622cbfc5888bb10c59e720e0c77c3cd519fda7b9c8fc105f986,2352.241167,False,keypress,EXP9b_testRsp_rv,248,[],choice-response,Shorter,655e73d1a60ad4b436a1357f,2023-11-22 16:34:02-05:00,tone_Cap,1061,609,PrescreenTrials_tones_rv,PrescreenTrials,2d2b4,EXP9b,0,1,8
44,609,6345b7f49677d36bd07c5a10,EXP9b_JF,0,2d2b41d2615bf622cbfc5888bb10c59e720e0c77c3cd519fda7b9c8fc105f986,2352.241167,False,keypress,EXP9b_testRsp_rv,297,[],choice-response,Longer,655e73d1a60ad4b436a1357f,2023-11-22 16:34:02-05:00,tone_Fat,1286,610,PrescreenTrials_tones_rv,PrescreenTrials,2d2b4,EXP9b,0,0,8
45,610,6345b7f49677d36bd07c5a10,EXP9b_JF,0,2d2b41d2615bf622cbfc5888bb10c59e720e0c77c3cd519fda7b9c8fc105f986,2352.241167,False,keypress,EXP9b_testRsp_rv,241,[],choice-response,Shorter,655e73d1a60ad4b436a1357f,2023-11-22 16:34:02-05:00,tone_Beat,1073,611,PrescreenTrials_tones_rv,PrescreenTrials,2d2b4,EXP9b,0,1,8
46,611,6345b7f49677d36bd07c5a10,EXP9b_JF,0,2d2b41d2615bf622cbfc5888bb10c59e720e0c77c3cd519fda7b9c8fc105f986,2352.241167,False,keypress,EXP9b_testRsp_rv,282,[],choice-response,Longer,655e73d1a60ad4b436a1357f,2023-11-22 16:34:02-05:00,tone_Lag,1303,612,PrescreenTrials_tones_rv,PrescreenTrials,2d2b4,EXP9b,0,0,8
47,612,6345b7f49677d36bd07c5a10,EXP9b_JF,0,2d2b41d2615bf622cbfc5888bb10c59e720e0c77c3cd519fda7b9c8fc105f986,2352.241167,False,keypress,EXP9b_testRsp_rv,269,[],choice-response,Shorter,655e73d1a60ad4b436a1357f,2023-11-22 16:34:02-05:00,tone_Back,1058,613,PrescreenTrials_tones_rv,PrescreenTrials,2d2b4,EXP9b,0,1,8
48,613,6345b7f49677d36bd07c5a10,EXP9b_JF,0,2d2b41d2615bf622cbfc5888bb10c59e720e0c77c3cd519fda7b9c8fc105f986,2352.241167,False,keypress,EXP9b_testRsp_rv,426,[],choice-response,Shorter,655e73d1a60ad4b436a1357f,2023-11-22 16:34:02-05:00,tone_Lap,1242,614,PrescreenTrials_tones_rv,PrescreenTrials,2d2b4,EXP9b,0,1,8
49,614,6345b7f49677d36bd07c5a10,EXP9b_JF,0,2d2b41d2615bf622cbfc5888bb10c59e720e0c77c3cd519fda7b9c8fc105f986,2352.241167,False,keypress,EXP9b_testRsp_rv,124,[],choice-response,Longer,655e73d1a60ad4b436a1357f,2023-11-22 16:34:02-05:00,tone_Bag,1111,615,PrescreenTrials_tones_rv,PrescreenTrials,2d2b4,EXP9b,0,0,8
50,615,6345b7f49677d36bd07c5a10,EXP9b_JF,0,2d2b41d2615bf622cbfc5888bb10c59e720e0c77c3cd519fda7b9c8fc105f986,2352.241167,False,keypress,EXP9b_testRsp_rv,260,[],choice-response,Shorter,655e73d1a60ad4b436a1357f,2023-11-22 16:34:02-05:00,tone_Back,1054,616,PrescreenTrials_tones_rv,PrescreenTrials,2d2b4,EXP9b,0,1,8
51,616,6345b7f49677d36bd07c5a10,EXP9b_JF,0,2d2b41d2615bf622cbfc5888bb10c59e720e0c77c3cd519fda7b9c8fc105f986,2352.241167,False,keypress,EXP9b_testRsp_rv,100,[],choice-response,Longer,655e73d1a60ad4b436a1357f,2023-11-22 16:34:02-05:00,tone_Cab,1109,617,PrescreenTrials_tones_rv,PrescreenTrials,2d2b4,EXP9b,0,0,8
52,617,6345b7f49677d36bd07c5a10,EXP9b_JF,0,2d2b41d2615bf622cbfc5888bb10c59e720e0c77c3cd519fda7b9c8fc105f986,2352.241167,False,keypress,EXP9b_testRsp_rv,442,[],choice-response,Shorter,655e73d1a60ad4b436a1357f,2023-11-22 16:34:02-05:00,tone_Fat,1433,618,PrescreenTrials_tones_rv,PrescreenTrials,2d2b4,EXP9b,0,1,8
53,618,6345b7f49677d36bd07c5a10,EXP9b_JF,0,2d2b41d2615bf622cbfc5888bb10c59e720e0c77c3cd519fda7b9c8fc105f986,2352.241167,False,keypress,EXP9b_testRsp_rv,184,[],choice-response,Shorter,655e73d1a60ad4b436a1357f,2023-11-22 16:34:02-05:00,tone_Beat,1011,619,PrescreenTrials_tones_rv,PrescreenTrials,2d2b4,EXP9b,0,1,8
54,619,6345b7f49677d36bd07c5a10,EXP9b_JF,0,2d2b41d2615bf622cbfc5888bb10c59e720e0c77c3cd519fda7b9c8fc105f986,2352.241167,False,keypress,EXP9b_testRsp_rv,67,[],choice-response,Longer,655e73d1a60ad4b436a1357f,2023-11-22 16:34:02-05:00,tone_Lag,1098,620,PrescreenTrials_tones_rv,PrescreenTrials,2d2b4,EXP9b,0,0,8
55,620,6345b7f49677d36bd07c5a10,EXP9b_JF,0,2d2b41d2615bf622cbfc5888bb10c59e720e0c77c3cd519fda7b9c8fc105f986,2352.241167,False,keypress,EXP9b_testRsp_rv,241,[],choice-response,Longer,655e73d1a60ad4b436a1357f,2023-11-22 16:34:02-05:00,tone_Bead,1269,621,PrescreenTrials_tones_rv,PrescreenTrials,2d2b4,EXP9b,0,0,8
56,621,6345b7f49677d36bd07c5a10,EXP9b_JF,0,2d2b41d2615bf622cbfc5888bb10c59e720e0c77c3cd519fda7b9c8fc105f986,2352.241167,False,keypress,EXP9b_testRsp_rv,22,[],choice-response,Longer,655e73d1a60ad4b436a1357f,2023-11-22 16:34:02-05:00,tone_Fad,1197,622,PrescreenTrials_tones_rv,PrescreenTrials,2d2b4,EXP9b,0,0,8
57,622,6345b7f49677d36bd07c5a10,EXP9b_JF,0,2d2b41d2615bf622cbfc5888bb10c59e720e0c77c3cd519fda7b9c8fc105f986,2352.241167,False,keypress,EXP9b_testRsp_rv,364,[],choice-response,Shorter,655e73d1a60ad4b436a1357f,2023-11-22 16:34:02-05:00,tone_Lack,1172,623,PrescreenTrials_tones_rv,PrescreenTrials,2d2b4,EXP9b,0,1,8
58,623,6345b7f49677d36bd07c5a10,EXP9b_JF,0,2d2b41d2615bf622cbfc5888bb10c59e720e0c77c3cd519fda7b9c8fc105f986,2352.241167,False,keypress,EXP9b_testRsp_rv,288,[],choice-response,Shorter,655e73d1a60ad4b436a1357f,2023-11-22 16:34:02-05:00,tone_Cap,1106,624,PrescreenTrials_tones_rv,PrescreenTrials,2d2b4,EXP9b,0,1,8
59,624,6345b7f49677d36bd07c5a10,EXP9b_JF,0,2d2b41d2615bf622cbfc5888bb10c59e720e0c77c3cd519fda7b9c8fc105f986,2352.241167,False,keypress,EXP9b_testRsp_rv,128,[],choice-response,Longer,655e73d1a60ad4b436a1357f,2023-11-22 16:34:02-05:00,tone_Lab,1156,625,PrescreenTrials_tones_rv,PrescreenTrials,2d2b4,EXP9b,0,0,8
60,625,6345b7f49677d36bd07c5a10,EXP9b_JF,0,2d2b41d2615bf622cbfc5888bb10c59e720e0c77c3cd519fda7b9c8fc105f986,2352.241167,False,keypress,EXP9b_testRsp_rv,174,[],choice-response,Shorter,655e73d1a60ad4b436a1357f,2023-11-22 16:34:02-05:00,tone_Back,1001,626,PrescreenTrials_tones_rv,PrescreenTrials,2d2b4,EXP9b,0,1,8
61,626,6345b7f49677d36bd07c5a10,EXP9b_JF,0,2d2b41d2615bf622cbfc5888bb10c59e720e0c77c3cd519fda7b9c8fc105f986,2352.241167,False,keypress,EXP9b_testRsp_rv,119,[],choice-response,Longer,655e73d1a60ad4b436a1357f,2023-11-22 16:34:02-05:00,tone_Lag,1132,627,PrescreenTrials_tones_rv,PrescreenTrials,2d2b4,EXP9b,0,0,8
62,627,6345b7f49677d36bd07c5a10,EXP9b_JF,0,2d2b41d2615bf622cbfc5888bb10c59e720e0c77c3cd519fda7b9c8fc105f986,2352.241167,False,keypress,EXP9b_testRsp_rv,128,[],choice-response,Longer,655e73d1a60ad4b436a1357f,2023-11-22 16:34:02-05:00,tone_Cab,1137,628,PrescreenTrials_tones_rv,PrescreenTrials,2d2b4,EXP9b,0,0,8
63,628,6345b7f49677d36bd07c5a10,EXP9b_JF,0,2d2b41d2615bf622cbfc5888bb10c59e720e0c77c3cd519fda7b9c8fc105f986,2352.241167,False,keypress,EXP9b_testRsp_rv,254,[],choice-response,Shorter,655e73d1a60ad4b436a1357f,2023-11-22 16:34:02-05:00,tone_Lap,1068,629,PrescreenTrials_tones_rv,PrescreenTrials,2d2b4,EXP9b,0,1,8
64,629,6345b7f49677d36bd07c5a10,EXP9b_JF,0,2d2b41d2615bf622cbfc5888bb10c59e720e0c77c3cd519fda7b9c8fc105f986,2352.241167,False,keypress,EXP9b_testRsp_rv,45,[],choice-response,Longer,655e73d1a60ad4b436a1357f,2023-11-22 16:34:02-05:00,tone_Lab,1076,630,PrescreenTrials_tones_rv,PrescreenTrials,2d2b4,EXP9b,0,0,8
65,630,6345b7f49677d36bd07c5a10,EXP9b_JF,0,2d2b41d2615bf622cbfc5888bb10c59e720e0c77c3cd519fda7b9c8fc105f986,2352.241167,False,keypress,EXP9b_testRsp_rv,830,[],choice-response,Longer,655e73d1a60ad4b436a1357f,2023-11-22 16:34:02-05:00,tone_Fad,2020,631,PrescreenTrials_tones_rv,PrescreenTrials,2d2b4,EXP9b,0,0,8
66,631,6345b7f49677d36bd07c5a10,EXP9b_JF,0,2d2b41d2615bf622cbfc5888bb10c59e720e0c77c3cd519fda7b9c8fc105f986,2352.241167,False,keypress,EXP9b_testRsp_rv,352,[],choice-response,Longer,655e73d1a60ad4b436a1357f,2023-11-22 16:34:02-05:00,tone_Bag,1349,632,PrescreenTrials_tones_rv,PrescreenTrials,2d2b4,EXP9b,0,0,8
67,632,6345b7f49677d36bd07c5a10,EXP9b_JF,0,2d2b41d2615bf622cbfc5888bb10c59e720e0c77c3cd519fda7b9c8fc105f986,2352.241167,False,keypress,EXP9b_testRsp_rv,247,[],choice-response,Shorter,655e73d1a60ad4b436a1357f,2023-11-22 16:34:02-05:00,tone_Beat,1077,633,PrescreenTrials_tones_rv,PrescreenTrials,2d2b4,EXP9b,0,1,8
68,633,6345b7f49677d36bd07c5a10,EXP9b_JF,0,2d2b41d2615bf622cbfc5888bb10c59e720e0c77c3cd519fda7b9c8fc105f986,2352.241167,False,keypress,EXP9b_testRsp_rv,94,[],choice-response,Longer,655e73d1a60ad4b436a1357f,2023-11-22 16:34:02-05:00,tone_Bead,1146,634,PrescreenTrials_tones_rv,PrescreenTrials,2d2b4,EXP9b,0,0,8
69,634,6345b7f49677d36bd07c5a10,EXP9b_JF,0,2d2b41d2615bf622cbfc5888bb10c59e720e0c77c3cd519fda7b9c8fc105f986,2352.241167,False,keypress,EXP9b_testRsp_rv,494,[],choice-response,Shorter,655e73d1a60ad4b436a1357f,2023-11-22 16:34:02-05:00,tone_Fat,1487,635,PrescreenTrials_tones_rv,PrescreenTrials,2d2b4,EXP9b,0,1,8
70,635,6345b7f49677d36bd07c5a10,EXP9b_JF,0,2d2b41d2615bf622cbfc5888bb10c59e720e0c77c3cd519fda7b9c8fc105f986,2352.241167,False,keypress,EXP9b_testRsp_rv,451,[],choice-response,Shorter,655e73d1a60ad4b436a1357f,2023-11-22 16:34:02-05:00,tone_Cap,1270,636,PrescreenTrials_tones_rv,PrescreenTrials,2d2b4,EXP9b,0,1,8
71,636,6345b7f49677d36bd07c5a10,EXP9b_JF,0,2d2b41d2615bf622cbfc5888bb10c59e720e0c77c3cd519fda7b9c8fc105f986,2352.241167,False,keypress,EXP9b_testRsp_rv,313,[],choice-response,Shorter,655e73d1a60ad4b436a1357f,2023-11-22 16:34:02-05:00,tone_Lack,1134,637,PrescreenTrials_tones_rv,PrescreenTrials,2d2b4,EXP9b,0,1,8
72,637,6345b7f49677d36bd07c5a10,EXP9b_JF,0,2d2b41d2615bf622cbfc5888bb10c59e720e0c77c3cd519fda7b9c8fc105f986,2352.241167,False,keypress,EXP9b_testRsp_rv,173,[],choice-response,Longer,655e73d1a60ad4b436a1357f,2023-11-22 16:34:02-05:00,tone_Fad,1351,638,PrescreenTrials_tones_rv,PrescreenTrials,2d2b4,EXP9b,0,0,8
73,638,6345b7f49677d36bd07c5a10,EXP9b_JF,0,2d2b41d2615bf622cbfc5888bb10c59e720e0c77c3cd519fda7b9c8fc105f986,2352.241167,False,keypress,EXP9b_testRsp_rv,403,[],choice-response,Shorter,655e73d1a60ad4b436a1357f,2023-11-22 16:34:02-05:00,tone_Cap,1220,639,PrescreenTrials_tones_rv,PrescreenTrials,2d2b4,EXP9b,0,1,8
74,639,6345b7f49677d36bd07c5a10,EXP9b_JF,0,2d2b41d2615bf622cbfc5888bb10c59e720e0c77c3cd519fda7b9c8fc105f986,2352.241167,False,keypress,EXP9b_testRsp_rv,159,[],choice-response,Shorter,655e73d1a60ad4b436a1357f,2023-11-22 16:34:02-05:00,tone_Lap,968,640,PrescreenTrials_tones_rv,PrescreenTrials,2d2b4,EXP9b,0,1,8
75,640,6345b7f49677d36bd07c5a10,EXP9b_JF,0,2d2b41d2615bf622cbfc5888bb10c59e720e0c77c3cd519fda7b9c8fc105f986,2352.241167,False,keypress,EXP9b_testRsp_rv,532,[],choice-response,Shorter,655e73d1a60ad4b436a1357f,2023-11-22 16:34:02-05:00,tone_Back,1327,641,PrescreenTrials_tones_rv,PrescreenTrials,2d2b4,EXP9b,0,1,8
76,641,6345b7f49677d36bd07c5a10,EXP9b_JF,0,2d2b41d2615bf622cbfc5888bb10c59e720e0c77c3cd519fda7b9c8fc105f986,2352.241167,False,keypress,EXP9b_testRsp_rv,95,[],choice-response,Longer,655e73d1a60ad4b436a1357f,2023-11-22 16:34:02-05:00,tone_Cab,1111,642,PrescreenTrials_tones_rv,PrescreenTrials,2d2b4,EXP9b,0,0,8
77,642,6345b7f49677d36bd07c5a10,EXP9b_JF,0,2d2b41d2615bf622cbfc5888bb10c59e720e0c77c3cd519fda7b9c8fc105f986,2352.241167,False,keypress,EXP9b_testRsp_rv,164,[],choice-response,Longer,655e73d1a60ad4b436a1357f,2023-11-22 16:34:02-05:00,tone_Bag,1136,643,PrescreenTrials_tones_rv,PrescreenTrials,2d2b4,EXP9b,0,0,8
78,643,6345b7f49677d36bd07c5a10,EXP9b_JF,0,2d2b41d2615bf622cbfc5888bb10c59e720e0c77c3cd519fda7b9c8fc105f986,2352.241167,False,keypress,EXP9b_testRsp_rv,171,[],choice-response,Shorter,655e73d1a60ad4b436a1357f,2023-11-22 16:34:02-05:00,tone_Beat,1006,644,PrescreenTrials_tones_rv,PrescreenTrials,2d2b4,EXP9b,0,1,8
79,644,6345b7f49677d36bd07c5a10,EXP9b_JF,0,2d2b41d2615bf622cbfc5888bb10c59e720e0c77c3cd519fda7b9c8fc105f986,2352.241167,False,keypress,EXP9b_testRsp_rv,29,[],choice-response,Longer,655e73d1a60ad4b436a1357f,2023-11-22 16:34:02-05:00,tone_Lab,1061,645,PrescreenTrials_tones_rv,PrescreenTrials,2d2b4,EXP9b,0,0,8
80,645,6345b7f49677d36bd07c5a10,EXP9b_JF,0,2d2b41d2615bf622cbfc5888bb10c59e720e0c77c3cd519fda7b9c8fc105f986,2352.241167,False,keypress,EXP9b_testRsp_rv,366,[],choice-response,Longer,655e73d1a60ad4b436a1357f,2023-11-22 16:34:02-05:00,tone_Bead,1422,646,PrescreenTrials_tones_rv,PrescreenTrials,2d2b4,EXP9b,0,0,8
81,646,6345b7f49677d36bd07c5a10,EXP9b_JF,0,2d2b41d2615bf622cbfc5888bb10c59e720e0c77c3cd519fda7b9c8fc105f986,2352.241167,False,keypress,EXP9b_testRsp_rv,334,[],choice-response,Longer,655e73d1a60ad4b436a1357f,2023-11-22 16:34:02-05:00,tone_Lag,1352,647,PrescreenTrials_tones_rv,PrescreenTrials,2d2b4,EXP9b,0,0,8
82,647,6345b7f49677d36bd07c5a10,EXP9b_JF,0,2d2b41d2615bf622cbfc5888bb10c59e720e0c77c3cd519fda7b9c8fc105f986,2352.241167,False,keypress,EXP9b_testRsp_rv,432,[],choice-response,Shorter,655e73d1a60ad4b436a1357f,2023-11-22 16:34:02-05:00,tone_Lack,1243,648,PrescreenTrials_tones_rv,PrescreenTrials,2d2b4,EXP9b,0,1,8
83,648,6345b7f49677d36bd07c5a10,EXP9b_JF,0,2d2b41d2615bf622cbfc5888bb10c59e720e0c77c3cd519fda7b9c8fc105f986,2352.241167,False,keypress,EXP9b_testRsp_rv,300,[],choice-response,Shorter,655e73d1a60ad4b436a1357f,2023-11-22 16:34:02-05:00,tone_Fat,1294,649,PrescreenTrials_tones_rv,PrescreenTrials,2d2b4,EXP9b,0,1,8
84,649,6345b7f49677d36bd07c5a10,EXP9b_JF,0,2d2b41d2615bf622cbfc5888bb10c59e720e0c77c3cd519fda7b9c8fc105f986,2352.241167,False,keypress,EXP9b_testRsp_rv,308,[],choice-response,Shorter,655e73d1a60ad4b436a1357f,2023-11-22 16:34:02-05:00,tone_Fat,1288,650,PrescreenTrials_tones_rv,PrescreenTrials,2d2b4,EXP9b,0,1,8
85,650,6345b7f49677d36bd07c5a10,EXP9b_JF,0,2d2b41d2615bf622cbfc5888bb10c59e720e0c77c3cd519fda7b9c8fc105f986,2352.241167,False,keypress,EXP9b_testRsp_rv,443,[],choice-response,Shorter,655e73d1a60ad4b436a1357f,2023-11-22 16:34:02-05:00,tone_Lap,1255,651,PrescreenTrials_tones_rv,PrescreenTrials,2d2b4,EXP9b,0,1,8
86,651,6345b7f49677d36bd07c5a10,EXP9b_JF,0,2d2b41d2615bf622cbfc5888bb10c59e720e0c77c3cd519fda7b9c8fc105f986,2352.241167,False,keypress,EXP9b_testRsp_rv,197,[],choice-response,Longer,655e73d1a60ad4b436a1357f,2023-11-22 16:34:02-05:00,tone_Lab,1231,652,PrescreenTrials_tones_rv,PrescreenTrials,2d2b4,EXP9b,0,0,8
87,652,6345b7f49677d36bd07c5a10,EXP9b_JF,0,2d2b41d2615bf622cbfc5888bb10c59e720e0c77c3cd519fda7b9c8fc105f986,2352.241167,False,keypress,EXP9b_testRsp_rv,77,[],choice-response,Longer,655e73d1a60ad4b436a1357f,2023-11-22 16:34:02-05:00,tone_Lag,1106,653,PrescreenTrials_tones_rv,PrescreenTrials,2d2b4,EXP9b,0,0,8
88,653,6345b7f49677d36bd07c5a10,EXP9b_JF,0,2d2b41d2615bf622cbfc5888bb10c59e720e0c77c3cd519fda7b9c8fc105f986,2352.241167,False,keypress,EXP9b_testRsp_rv,222,[],choice-response,Longer,655e73d1a60ad4b436a1357f,2023-11-22 16:34:02-05:00,tone_Bag,1206,654,PrescreenTrials_tones_rv,PrescreenTrials,2d2b4,EXP9b,0,0,8
89,654,6345b7f49677d36bd07c5a10,EXP9b_JF,0,2d2b41d2615bf622cbfc5888bb10c59e720e0c77c3cd519fda7b9c8fc105f986,2352.241167,False,keypress,EXP9b_testRsp_rv,310,[],choice-response,Shorter,655e73d1a60ad4b436a1357f,2023-11-22 16:34:02-05:00,tone_Back,1109,655,PrescreenTrials_tones_rv,PrescreenTrials,2d2b4,EXP9b,0,1,8
90,655,6345b7f49677d36bd07c5a10,EXP9b_JF,0,2d2b41d2615bf622cbfc5888bb10c59e720e0c77c3cd519fda7b9c8fc105f986,2352.241167,False,keypress,EXP9b_testRsp_rv,45,[],choice-response,Shorter,655e73d1a60ad4b436a1357f,2023-11-22 16:34:02-05:00,tone_Fad,1221,656,PrescreenTrials_tones_rv,PrescreenTrials,2d2b4,EXP9b,0,1,8
91,656,6345b7f49677d36bd07c5a10,EXP9b_JF,0,2d2b41d2615bf622cbfc5888bb10c59e720e0c77c3cd519fda7b9c8fc105f986,2352.241167,False,keypress,EXP9b_testRsp_rv,329,[],choice-response,Shorter,655e73d1a60ad4b436a1357f,2023-11-22 16:34:02-05:00,tone_Beat,1161,657,PrescreenTrials_tones_rv,PrescreenTrials,2d2b4,EXP9b,0,1,8
92,657,6345b7f49677d36bd07c5a10,EXP9b_JF,0,2d2b41d2615bf622cbfc5888bb10c59e720e0c77c3cd519fda7b9c8fc105f986,2352.241167,False,keypress,EXP9b_testRsp_rv,135,[],choice-response,Longer,655e73d1a60ad4b436a1357f,2023-11-22 16:34:02-05:00,tone_Cab,1156,658,PrescreenTrials_tones_rv,PrescreenTrials,2d2b4,EXP9b,0,0,8
93,658,6345b7f49677d36bd07c5a10,EXP9b_JF,0,2d2b41d2615bf622cbfc5888bb10c59e720e0c77c3cd519fda7b9c8fc105f986,2352.241167,False,keypress,EXP9b_testRsp_rv,414,[],choice-response,Shorter,655e73d1a60ad4b436a1357f,2023-11-22 16:34:02-05:00,tone_Cap,1236,659,PrescreenTrials_tones_rv,PrescreenTrials,2d2b4,EXP9b,0,1,8
94,659,6345b7f49677d36bd07c5a10,EXP9b_JF,0,2d2b41d2615bf622cbfc5888bb10c59e720e0c77c3cd519fda7b9c8fc105f986,2352.241167,False,keypress,EXP9b_testRsp_rv,128,[],choice-response,Longer,655e73d1a60ad4b436a1357f,2023-11-22 16:34:02-05:00,tone_Bead,1168,660,PrescreenTrials_tones_rv,PrescreenTrials,2d2b4,EXP9b,0,0,8
95,660,6345b7f49677d36bd07c5a10,EXP9b_JF,0,2d2b41d2615bf622cbfc5888bb10c59e720e0c77c3cd519fda7b9c8fc105f986,2352.241167,False,keypress,EXP9b_testRsp_rv,363,[],choice-response,Shorter,655e73d1a60ad4b436a1357f,2023-11-22 16:34:02-05:00,tone_Lack,1184,661,PrescreenTrials_tones_rv,PrescreenTrials,2d2b4,EXP9b,0,1,8
96,661,6345b7f49677d36bd07c5a10,EXP9b_JF,0,2d2b41d2615bf622cbfc5888bb10c59e720e0c77c3cd519fda7b9c8fc105f986,2352.241167,False,keypress,EXP9b_testRsp_rv,71,[],choice-response,Longer,655e73d1a60ad4b436a1357f,2023-11-22 16:34:02-05:00,tone_Fad,1261,662,PrescreenTrials_tones_rv,PrescreenTrials,2d2b4,EXP9b,0,0,8
97,662,6345b7f49677d36bd07c5a10,EXP9b_JF,0,2d2b41d2615bf622cbfc5888bb10c59e720e0c77c3cd519fda7b9c8fc105f986,2352.241167,False,keypress,EXP9b_testRsp_rv,196,[],choice-response,Longer,655e73d1a60ad4b436a1357f,2023-11-22 16:34:02-05:00,tone_Cab,1203,663,PrescreenTrials_tones_rv,PrescreenTrials,2d2b4,EXP9b,0,0,8
98,663,6345b7f49677d36bd07c5a10,EXP9b_JF,0,2d2b41d2615bf622cbfc5888bb10c59e720e0c77c3cd519fda7b9c8fc105f986,2352.241167,False,keypress,EXP9b_testRsp_rv,336,[],choice-response,Shorter,655e73d1a60ad4b436a1357f,2023-11-22 16:34:02-05:00,tone_Back,1134,664,PrescreenTrials_tones_rv,PrescreenTrials,2d2b4,EXP9b,0,1,8
99,664,6345b7f49677d36bd07c5a10,EXP9b_JF,0,2d2b41d2615bf622cbfc5888bb10c59e720e0c77c3cd519fda7b9c8fc105f986,2352.241167,False,keypress,EXP9b_testRsp_rv,325,[],choice-response,Shorter,655e73d1a60ad4b436a1357f,2023-11-22 16:34:02-05:00,tone_Beat,1163,665,PrescreenTrials_tones_rv,PrescreenTrials,2d2b4,EXP9b,0,1,8
100,665,6345b7f49677d36bd07c5a10,EXP9b_JF,0,2d2b41d2615bf622cbfc5888bb10c59e720e0c77c3cd519fda7b9c8fc105f986,2352.241167,False,keypress,EXP9b_testRsp_rv,140,[],choice-response,Longer,655e73d1a60ad4b436a1357f,2023-11-22 16:34:02-05:00,tone_Bead,1185,666,PrescreenTrials_tones_rv,PrescreenTrials,2d2b4,EXP9b,0,0,8
101,666,6345b7f49677d36bd07c5a10,EXP9b_JF,0,2d2b41d2615bf622cbfc5888bb10c59e720e0c77c3cd519fda7b9c8fc105f986,2352.241167,False,keypress,EXP9b_testRsp_rv,323,[],choice-response,Shorter,655e73d1a60ad4b436a1357f,2023-11-22 16:34:02-05:00,tone_Fat,1311,667,PrescreenTrials_tones_rv,PrescreenTrials,2d2b4,EXP9b,0,1,8
102,667,6345b7f49677d36bd07c5a10,EXP9b_JF,0,2d2b41d2615bf622cbfc5888bb10c59e720e0c77c3cd519fda7b9c8fc105f986,2352.241167,False,keypress,EXP9b_testRsp_rv,353,[],choice-response,Shorter,655e73d1a60ad4b436a1357f,2023-11-22 16:34:02-05:00,tone_Lap,1165,668,PrescreenTrials_tones_rv,PrescreenTrials,2d2b4,EXP9b,0,1,8
103,668,6345b7f49677d36bd07c5a10,EXP9b_JF,0,2d2b41d2615bf622cbfc5888bb10c59e720e0c77c3cd519fda7b9c8fc105f986,2352.241167,False,keypress,EXP9b_testRsp_rv,29,[],choice-response,Longer,655e73d1a60ad4b436a1357f,2023-11-22 16:34:02-05:00,tone_Lab,1049,669,PrescreenTrials_tones_rv,PrescreenTrials,2d2b4,EXP9b,0,0,8
104,669,6345b7f49677d36bd07c5a10,EXP9b_JF,0,2d2b41d2615bf622cbfc5888bb10c59e720e0c77c3cd519fda7b9c8fc105f986,2352.241167,False,keypress,EXP9b_testRsp_rv,349,[],choice-response,Shorter,655e73d1a60ad4b436a1357f,2023-11-22 16:34:02-05:00,tone_Cap,1164,670,PrescreenTrials_tones_rv,PrescreenTrials,2d2b4,EXP9b,0,1,8
105,670,6345b7f49677d36bd07c5a10,EXP9b_JF,0,2d2b41d2615bf622cbfc5888bb10c59e720e0c77c3cd519fda7b9c8fc105f986,2352.241167,False,keypress,EXP9b_testRsp_rv,214,[],choice-response,Longer,655e73d1a60ad4b436a1357f,2023-11-22 16:34:02-05:00,tone_Lag,1262,671,PrescreenTrials_tones_rv,PrescreenTrials,2d2b4,EXP9b,0,0,8
106,671,6345b7f49677d36bd07c5a10,EXP9b_JF,0,2d2b41d2615bf622cbfc5888bb10c59e720e0c77c3cd519fda7b9c8fc105f986,2352.241167,False,keypress,EXP9b_testRsp_rv,230,[],choice-response,Longer,655e73d1a60ad4b436a1357f,2023-11-22 16:34:02-05:00,tone_Bag,1218,672,PrescreenTrials_tones_rv,PrescreenTrials,2d2b4,EXP9b,0,0,8
107,672,6345b7f49677d36bd07c5a10,EXP9b_JF,0,2d2b41d2615bf622cbfc5888bb10c59e720e0c77c3cd519fda7b9c8fc105f986,2352.241167,False,keypress,EXP9b_testRsp_rv,259,[],choice-response,Shorter,655e73d1a60ad4b436a1357f,2023-11-22 16:34:02-05:00,tone_Lack,1078,673,PrescreenTrials_tones_rv,PrescreenTrials,2d2b4,EXP9b,0,1,8
108,673,6345b7f49677d36bd07c5a10,EXP9b_JF,0,2d2b41d2615bf622cbfc5888bb10c59e720e0c77c3cd519fda7b9c8fc105f986,2352.241167,False,keypress,EXP9b_testRsp_rv,172,[],choice-response,Longer,655e73d1a60ad4b436a1357f,2023-11-22 16:34:02-05:00,tone_Cab,1183,674,PrescreenTrials_tones_rv,PrescreenTrials,2d2b4,EXP9b,0,0,8
109,674,6345b7f49677d36bd07c5a10,EXP9b_JF,0,2d2b41d2615bf622cbfc5888bb10c59e720e0c77c3cd519fda7b9c8fc105f986,2352.241167,False,keypress,EXP9b_testRsp_rv,103,[],choice-response,Longer,655e73d1a60ad4b436a1357f,2023-11-22 16:34:02-05:00,tone_Bead,1157,675,PrescreenTrials_tones_rv,PrescreenTrials,2d2b4,EXP9b,0,0,8
110,675,6345b7f49677d36bd07c5a10,EXP9b_JF,0,2d2b41d2615bf622cbfc5888bb10c59e720e0c77c3cd519fda7b9c8fc105f986,2352.241167,False,keypress,EXP9b_testRsp_rv,125,[],choice-response,Longer,655e73d1a60ad4b436a1357f,2023-11-22 16:34:02-05:00,tone_Lag,1158,676,PrescreenTrials_tones_rv,PrescreenTrials,2d2b4,EXP9b,0,0,8
111,676,6345b7f49677d36bd07c5a10,EXP9b_JF,0,2d2b41d2615bf622cbfc5888bb10c59e720e0c77c3cd519fda7b9c8fc105f986,2352.241167,False,keypress,EXP9b_testRsp_rv,216,[],choice-response,Shorter,655e73d1a60ad4b436a1357f,2023-11-22 16:34:02-05:00,tone_Lap,1057,677,PrescreenTrials_tones_rv,PrescreenTrials,2d2b4,EXP9b,0,1,8
112,677,6345b7f49677d36bd07c5a10,EXP9b_JF,0,2d2b41d2615bf622cbfc5888bb10c59e720e0c77c3cd519fda7b9c8fc105f986,2352.241167,False,keypress,EXP9b_testRsp_rv,229,[],choice-response,Longer,655e73d1a60ad4b436a1357f,2023-11-22 16:34:02-05:00,tone_Fad,1414,678,PrescreenTrials_tones_rv,PrescreenTrials,2d2b4,EXP9b,0,0,8
113,678,6345b7f49677d36bd07c5a10,EXP9b_JF,0,2d2b41d2615bf622cbfc5888bb10c59e720e0c77c3cd519fda7b9c8fc105f986,2352.241167,False,keypress,EXP9b_testRsp_rv,447,[],choice-response,Shorter,655e73d1a60ad4b436a1357f,2023-11-22 16:34:02-05:00,tone_Back,1243,679,PrescreenTrials_tones_rv,PrescreenTrials,2d2b4,EXP9b,0,1,8
114,679,6345b7f49677d36bd07c5a10,EXP9b_JF,0,2d2b41d2615bf622cbfc5888bb10c59e720e0c77c3cd519fda7b9c8fc105f986,2352.241167,False,keypress,EXP9b_testRsp_rv,199,[],choice-response,Longer,655e73d1a60ad4b436a1357f,2023-11-22 16:34:02-05:00,tone_Lack,1004,680,PrescreenTrials_tones_rv,PrescreenTrials,2d2b4,EXP9b,0,0,8
115,680,6345b7f49677d36bd07c5a10,EXP9b_JF,0,2d2b41d2615bf622cbfc5888bb10c59e720e0c77c3cd519fda7b9c8fc105f986,2352.241167,False,keypress,EXP9b_testRsp_rv,238,[],choice-response,Longer,655e73d1a60ad4b436a1357f,2023-11-22 16:34:02-05:00,tone_Lab,1271,681,PrescreenTrials_tones_rv,PrescreenTrials,2d2b4,EXP9b,0,0,8
116,681,6345b7f49677d36bd07c5a10,EXP9b_JF,0,2d2b41d2615bf622cbfc5888bb10c59e720e0c77c3cd519fda7b9c8fc105f986,2352.241167,False,keypress,EXP9b_testRsp_rv,302,[],choice-response,Shorter,655e73d1a60ad4b436a1357f,2023-11-22 16:34:02-05:00,tone_Beat,1142,682,PrescreenTrials_tones_rv,PrescreenTrials,2d2b4,EXP9b,0,1,8
117,682,6345b7f49677d36bd07c5a10,EXP9b_JF,0,2d2b41d2615bf622cbfc5888bb10c59e720e0c77c3cd519fda7b9c8fc105f986,2352.241167,False,keypress,EXP9b_testRsp_rv,450,[],choice-response,Shorter,655e73d1a60ad4b436a1357f,2023-11-22 16:34:02-05:00,tone_Fat,1434,683,PrescreenTrials_tones_rv,PrescreenTrials,2d2b4,EXP9b,0,1,8
118,683,6345b7f49677d36bd07c5a10,EXP9b_JF,0,2d2b41d2615bf622cbfc5888bb10c59e720e0c77c3cd519fda7b9c8fc105f986,2352.241167,False,keypress,EXP9b_testRsp_rv,307,[],choice-response,Shorter,655e73d1a60ad4b436a1357f,2023-11-22 16:34:02-05:00,tone_Cap,1133,684,PrescreenTrials_tones_rv,PrescreenTrials,2d2b4,EXP9b,0,1,8
119,684,6345b7f49677d36bd07c5a10,EXP9b_JF,0,2d2b41d2615bf622cbfc5888bb10c59e720e0c77c3cd519fda7b9c8fc105f986,2352.241167,False,keypress,EXP9b_testRsp_rv,29,[],choice-response,Longer,655e73d1a60ad4b436a1357f,2023-11-22 16:34:02-05:00,tone_Bag,1010,685,PrescreenTrials_tones_rv,PrescreenTrials,2d2b4,EXP9b,0,0,8
120,1265,6345b7f49677d36bd07c5a10,EXP9b_JF,0,eab73361cfad79132c98d825c335017e7e9a5d40328f57c597eae8ab4ac2c049,2514.405365,False,keypress,EXP9b_testRsp_rv,4585,[],choice-response,Shorter,655e73d1a60ad4b436a1357f,2023-11-22 16:34:02-05:00,tone_Back,5861,566,PrescreenTrials_tones_rv,PrescreenTrials,eab73,EXP9b,0,1,8
121,1266,6345b7f49677d36bd07c5a10,EXP9b_JF,0,eab73361cfad79132c98d825c335017e7e9a5d40328f57c597eae8ab4ac2c049,2514.405365,False,keypress,EXP9b_testRsp_rv,243,[],choice-response,Longer,655e73d1a60ad4b436a1357f,2023-11-22 16:34:02-05:00,tone_Lab,1505,567,PrescreenTrials_tones_rv,PrescreenTrials,eab73,EXP9b,0,0,8
122,1267,6345b7f49677d36bd07c5a10,EXP9b_JF,0,eab73361cfad79132c98d825c335017e7e9a5d40328f57c597eae8ab4ac2c049,2514.405365,False,keypress,EXP9b_testRsp_rv,356,[],choice-response,Shorter,655e73d1a60ad4b436a1357f,2023-11-22 16:34:02-05:00,tone_Lack,1543,568,PrescreenTrials_tones_rv,PrescreenTrials,eab73,EXP9b,0,1,8
123,1268,6345b7f49677d36bd07c5a10,EXP9b_JF,0,eab73361cfad79132c98d825c335017e7e9a5d40328f57c597eae8ab4ac2c049,2514.405365,False,keypress,EXP9b_testRsp_rv,188,[],choice-response,Longer,655e73d1a60ad4b436a1357f,2023-11-22 16:34:02-05:00,tone_Fad,1806,569,PrescreenTrials_tones_rv,PrescreenTrials,eab73,EXP9b,0,0,8
124,1269,6345b7f49677d36bd07c5a10,EXP9b_JF,0,eab73361cfad79132c98d825c335017e7e9a5d40328f57c597eae8ab4ac2c049,2514.405365,False,keypress,EXP9b_testRsp_rv,189,[],choice-response,Longer,655e73d1a60ad4b436a1357f,2023-11-22 16:34:02-05:00,tone_Bag,1519,570,PrescreenTrials_tones_rv,PrescreenTrials,eab73,EXP9b,0,0,8
125,1270,6345b7f49677d36bd07c5a10,EXP9b_JF,0,eab73361cfad79132c98d825c335017e7e9a5d40328f57c597eae8ab4ac2c049,2514.405365,False,keypress,EXP9b_testRsp_rv,189,[],choice-response,Longer,655e73d1a60ad4b436a1357f,2023-11-22 16:34:02-05:00,tone_Bead,1541,571,PrescreenTrials_tones_rv,PrescreenTrials,eab73,EXP9b,0,0,8
126,1271,6345b7f49677d36bd07c5a10,EXP9b_JF,0,eab73361cfad79132c98d825c335017e7e9a5d40328f57c597eae8ab4ac2c049,2514.405365,False,keypress,EXP9b_testRsp_rv,372,[],choice-response,Shorter,655e73d1a60ad4b436a1357f,2023-11-22 16:34:02-05:00,tone_Beat,1620,572,PrescreenTrials_tones_rv,PrescreenTrials,eab73,EXP9b,0,1,8
127,1272,6345b7f49677d36bd07c5a10,EXP9b_JF,0,eab73361cfad79132c98d825c335017e7e9a5d40328f57c597eae8ab4ac2c049,2514.405365,False,keypress,EXP9b_testRsp_rv,327,[],choice-response,Longer,655e73d1a60ad4b436a1357f,2023-11-22 16:34:02-05:00,tone_Fat,1661,573,PrescreenTrials_tones_rv,PrescreenTrials,eab73,EXP9b,0,0,8
128,1273,6345b7f49677d36bd07c5a10,EXP9b_JF,0,eab73361cfad79132c98d825c335017e7e9a5d40328f57c597eae8ab4ac2c049,2514.405365,False,keypress,EXP9b_testRsp_rv,429,[],choice-response,Longer,655e73d1a60ad4b436a1357f,2023-11-22 16:34:02-05:00,tone_Cab,1764,574,PrescreenTrials_tones_rv,PrescreenTrials,eab73,EXP9b,0,0,8
129,1274,6345b7f49677d36bd07c5a10,EXP9b_JF,0,eab73361cfad79132c98d825c335017e7e9a5d40328f57c597eae8ab4ac2c049,2514.405365,False,keypress,EXP9b_testRsp_rv,410,[],choice-response,Shorter,655e73d1a60ad4b436a1357f,2023-11-22 16:34:02-05:00,tone_Cap,1359,575,PrescreenTrials_tones_rv,PrescreenTrials,eab73,EXP9b,0,1,8
130,1275,6345b7f49677d36bd07c5a10,EXP9b_JF,0,eab73361cfad79132c98d825c335017e7e9a5d40328f57c597eae8ab4ac2c049,2514.405365,False,keypress,EXP9b_testRsp_rv,227,[],choice-response,Longer,655e73d1a60ad4b436a1357f,2023-11-22 16:34:02-05:00,tone_Lag,1763,576,PrescreenTrials_tones_rv,PrescreenTrials,eab73,EXP9b,0,0,8
131,1276,6345b7f49677d36bd07c5a10,EXP9b_JF,0,eab73361cfad79132c98d825c335017e7e9a5d40328f57c597eae8ab4ac2c049,2514.405365,False,keypress,EXP9b_testRsp_rv,509,[],choice-response,Shorter,655e73d1a60ad4b436a1357f,2023-11-22 16:34:02-05:00,tone_Lap,1666,577,PrescreenTrials_tones_rv,PrescreenTrials,eab73,EXP9b,0,1,8
132,1277,6345b7f49677d36bd07c5a10,EXP9b_JF,0,eab73361cfad79132c98d825c335017e7e9a5d40328f57c597eae8ab4ac2c049,2514.405365,False,keypress,EXP9b_testRsp_rv,135,[],choice-response,Longer,655e73d1a60ad4b436a1357f,2023-11-22 16:34:02-05:00,tone_Fad,1678,578,PrescreenTrials_tones_rv,PrescreenTrials,eab73,EXP9b,0,0,8
133,1278,6345b7f49677d36bd07c5a10,EXP9b_JF,0,eab73361cfad79132c98d825c335017e7e9a5d40328f57c597eae8ab4ac2c049,2514.405365,False,keypress,EXP9b_testRsp_rv,256,[],choice-response,Longer,655e73d1a60ad4b436a1357f,2023-11-22 16:34:02-05:00,tone_Lab,1633,579,PrescreenTrials_tones_rv,PrescreenTrials,eab73,EXP9b,0,0,8
134,1279,6345b7f49677d36bd07c5a10,EXP9b_JF,0,eab73361cfad79132c98d825c335017e7e9a5d40328f57c597eae8ab4ac2c049,2514.405365,False,keypress,EXP9b_testRsp_rv,368,[],choice-response,Shorter,655e73d1a60ad4b436a1357f,2023-11-22 16:34:02-05:00,tone_Back,1242,580,PrescreenTrials_tones_rv,PrescreenTrials,eab73,EXP9b,0,1,8
135,1280,6345b7f49677d36bd07c5a10,EXP9b_JF,0,eab73361cfad79132c98d825c335017e7e9a5d40328f57c597eae8ab4ac2c049,2514.405365,False,keypress,EXP9b_testRsp_rv,254,[],choice-response,Longer,655e73d1a60ad4b436a1357f,2023-11-22 16:34:02-05:00,tone_Lag,1612,581,PrescreenTrials_tones_rv,PrescreenTrials,eab73,EXP9b,0,0,8
136,1281,6345b7f49677d36bd07c5a10,EXP9b_JF,0,eab73361cfad79132c98d825c335017e7e9a5d40328f57c597eae8ab4ac2c049,2514.405365,False,keypress,EXP9b_testRsp_rv,420,[],choice-response,Shorter,655e73d1a60ad4b436a1357f,2023-11-22 16:34:02-05:00,tone_Beat,1765,582,PrescreenTrials_tones_rv,PrescreenTrials,eab73,EXP9b,0,1,8
137,1282,6345b7f49677d36bd07c5a10,EXP9b_JF,0,eab73361cfad79132c98d825c335017e7e9a5d40328f57c597eae8ab4ac2c049,2514.405365,False,keypress,EXP9b_testRsp_rv,449,[],choice-response,Longer,655e73d1a60ad4b436a1357f,2023-11-22 16:34:02-05:00,tone_Bag,1680,583,PrescreenTrials_tones_rv,PrescreenTrials,eab73,EXP9b,0,0,8
138,1283,6345b7f49677d36bd07c5a10,EXP9b_JF,0,eab73361cfad79132c98d825c335017e7e9a5d40328f57c597eae8ab4ac2c049,2514.405365,False,keypress,EXP9b_testRsp_rv,297,[],choice-response,Longer,655e73d1a60ad4b436a1357f,2023-11-22 16:34:02-05:00,tone_Cab,1553,584,PrescreenTrials_tones_rv,PrescreenTrials,eab73,EXP9b,0,0,8
139,1284,6345b7f49677d36bd07c5a10,EXP9b_JF,0,eab73361cfad79132c98d825c335017e7e9a5d40328f57c597eae8ab4ac2c049,2514.405365,False,keypress,EXP9b_testRsp_rv,477,[],choice-response,Shorter,655e73d1a60ad4b436a1357f,2023-11-22 16:34:02-05:00,tone_Lack,1837,585,PrescreenTrials_tones_rv,PrescreenTrials,eab73,EXP9b,0,1,8
140,1285,6345b7f49677d36bd07c5a10,EXP9b_JF,0,eab73361cfad79132c98d825c335017e7e9a5d40328f57c597eae8ab4ac2c049,2514.405365,False,keypress,EXP9b_testRsp_rv,368,[],choice-response,Shorter,655e73d1a60ad4b436a1357f,2023-11-22 16:34:02-05:00,tone_Cap,1447,586,PrescreenTrials_tones_rv,PrescreenTrials,eab73,EXP9b,0,1,8
141,1286,6345b7f49677d36bd07c5a10,EXP9b_JF,0,eab73361cfad79132c98d825c335017e7e9a5d40328f57c597eae8ab4ac2c049,2514.405365,False,keypress,EXP9b_testRsp_rv,671,[],choice-response,Shorter,655e73d1a60ad4b436a1357f,2023-11-22 16:34:02-05:00,tone_Fat,1870,587,PrescreenTrials_tones_rv,PrescreenTrials,eab73,EXP9b,0,1,8
142,1287,6345b7f49677d36bd07c5a10,EXP9b_JF,0,eab73361cfad79132c98d825c335017e7e9a5d40328f57c597eae8ab4ac2c049,2514.405365,False,keypress,EXP9b_testRsp_rv,177,[],choice-response,Longer,655e73d1a60ad4b436a1357f,2023-11-22 16:34:02-05:00,tone_Bead,1679,588,PrescreenTrials_tones_rv,PrescreenTrials,eab73,EXP9b,0,0,8
143,1288,6345b7f49677d36bd07c5a10,EXP9b_JF,0,eab73361cfad79132c98d825c335017e7e9a5d40328f57c597eae8ab4ac2c049,2514.405365,False,keypress,EXP9b_testRsp_rv,319,[],choice-response,Shorter,655e73d1a60ad4b436a1357f,2023-11-22 16:34:02-05:00,tone_Lap,1461,589,PrescreenTrials_tones_rv,PrescreenTrials,eab73,EXP9b,0,1,8
144,1289,6345b7f49677d36bd07c5a10,EXP9b_JF,0,eab73361cfad79132c98d825c335017e7e9a5d40328f57c597eae8ab4ac2c049,2514.405365,False,keypress,EXP9b_testRsp_rv,423,[],choice-response,Shorter,655e73d1a60ad4b436a1357f,2023-11-22 16:34:02-05:00,tone_Fat,1816,590,PrescreenTrials_tones_rv,PrescreenTrials,eab73,EXP9b,0,1,8
145,1290,6345b7f49677d36bd07c5a10,EXP9b_JF,0,eab73361cfad79132c98d825c335017e7e9a5d40328f57c597eae8ab4ac2c049,2514.405365,False,keypress,EXP9b_testRsp_rv,1314,[],choice-response,Shorter,655e73d1a60ad4b436a1357f,2023-11-22 16:34:02-05:00,tone_Lack,2618,591,PrescreenTrials_tones_rv,PrescreenTrials,eab73,EXP9b,0,1,8
146,1291,6345b7f49677d36bd07c5a10,EXP9b_JF,0,eab73361cfad79132c98d825c335017e7e9a5d40328f57c597eae8ab4ac2c049,2514.405365,False,keypress,EXP9b_testRsp_rv,227,[],choice-response,Longer,655e73d1a60ad4b436a1357f,2023-11-22 16:34:02-05:00,tone_Bag,1710,592,PrescreenTrials_tones_rv,PrescreenTrials,eab73,EXP9b,0,0,8
147,1292,6345b7f49677d36bd07c5a10,EXP9b_JF,0,eab73361cfad79132c98d825c335017e7e9a5d40328f57c597eae8ab4ac2c049,2514.405365,False,keypress,EXP9b_testRsp_rv,289,[],choice-response,Longer,655e73d1a60ad4b436a1357f,2023-11-22 16:34:02-05:00,tone_Fad,1709,593,PrescreenTrials_tones_rv,PrescreenTrials,eab73,EXP9b,0,0,8
148,1293,6345b7f49677d36bd07c5a10,EXP9b_JF,0,eab73361cfad79132c98d825c335017e7e9a5d40328f57c597eae8ab4ac2c049,2514.405365,False,keypress,EXP9b_testRsp_rv,395,[],choice-response,Shorter,655e73d1a60ad4b436a1357f,2023-11-22 16:34:02-05:00,tone_Lap,1105,594,PrescreenTrials_tones_rv,PrescreenTrials,eab73,EXP9b,0,1,8
149,1294,6345b7f49677d36bd07c5a10,EXP9b_JF,0,eab73361cfad79132c98d825c335017e7e9a5d40328f57c597eae8ab4ac2c049,2514.405365,False,keypress,EXP9b_testRsp_rv,275,[],choice-response,Longer,655e73d1a60ad4b436a1357f,2023-11-22 16:34:02-05:00,tone_Lag,1901,595,PrescreenTrials_tones_rv,PrescreenTrials,eab73,EXP9b,0,0,8
150,1295,6345b7f49677d36bd07c5a10,EXP9b_JF,0,eab73361cfad79132c98d825c335017e7e9a5d40328f57c597eae8ab4ac2c049,2514.405365,False,keypress,EXP9b_testRsp_rv,1227,[],choice-response,Longer,655e73d1a60ad4b436a1357f,2023-11-22 16:34:02-05:00,tone_Lab,2451,596,PrescreenTrials_tones_rv,PrescreenTrials,eab73,EXP9b,0,0,8
151,1296,6345b7f49677d36bd07c5a10,EXP9b_JF,0,eab73361cfad79132c98d825c335017e7e9a5d40328f57c597eae8ab4ac2c049,2514.405365,False,keypress,EXP9b_testRsp_rv,152,[],choice-response,Longer,655e73d1a60ad4b436a1357f,2023-11-22 16:34:02-05:00,tone_Bead,1705,597,PrescreenTrials_tones_rv,PrescreenTrials,eab73,EXP9b,0,0,8
152,1297,6345b7f49677d36bd07c5a10,EXP9b_JF,0,eab73361cfad79132c98d825c335017e7e9a5d40328f57c597eae8ab4ac2c049,2514.405365,False,keypress,EXP9b_testRsp_rv,305,[],choice-response,Shorter,655e73d1a60ad4b436a1357f,2023-11-22 16:34:02-05:00,tone_Cap,1398,598,PrescreenTrials_tones_rv,PrescreenTrials,eab73,EXP9b,0,1,8
153,1298,6345b7f49677d36bd07c5a10,EXP9b_JF,0,eab73361cfad79132c98d825c335017e7e9a5d40328f57c597eae8ab4ac2c049,2514.405365,False,keypress,EXP9b_testRsp_rv,274,[],choice-response,Longer,655e73d1a60ad4b436a1357f,2023-11-22 16:34:02-05:00,tone_Back,1311,599,PrescreenTrials_tones_rv,PrescreenTrials,eab73,EXP9b,0,0,8
154,1299,6345b7f49677d36bd07c5a10,EXP9b_JF,0,eab73361cfad79132c98d825c335017e7e9a5d40328f57c597eae8ab4ac2c049,2514.405365,False,keypress,EXP9b_testRsp_rv,767,[],choice-response,Shorter,655e73d1a60ad4b436a1357f,2023-11-22 16:34:02-05:00,tone_Beat,3414,600,PrescreenTrials_tones_rv,PrescreenTrials,eab73,EXP9b,0,1,8
155,1300,6345b7f49677d36bd07c5a10,EXP9b_JF,0,eab73361cfad79132c98d825c335017e7e9a5d40328f57c597eae8ab4ac2c049,2514.405365,False,keypress,EXP9b_testRsp_rv,615,[],choice-response,Longer,655e73d1a60ad4b436a1357f,2023-11-22 16:34:02-05:00,tone_Cab,1870,601,PrescreenTrials_tones_rv,PrescreenTrials,eab73,EXP9b,0,0,8
156,1301,6345b7f49677d36bd07c5a10,EXP9b_JF,0,eab73361cfad79132c98d825c335017e7e9a5d40328f57c597eae8ab4ac2c049,2514.405365,False,keypress,EXP9b_testRsp_rv,302,[],choice-response,Longer,655e73d1a60ad4b436a1357f,2023-11-22 16:34:02-05:00,tone_Bead,1703,602,PrescreenTrials_tones_rv,PrescreenTrials,eab73,EXP9b,0,0,8
157,1302,6345b7f49677d36bd07c5a10,EXP9b_JF,0,eab73361cfad79132c98d825c335017e7e9a5d40328f57c597eae8ab4ac2c049,2514.405365,False,keypress,EXP9b_testRsp_rv,256,[],choice-response,Longer,655e73d1a60ad4b436a1357f,2023-11-22 16:34:02-05:00,tone_Cab,1718,603,PrescreenTrials_tones_rv,PrescreenTrials,eab73,EXP9b,0,0,8
158,1303,6345b7f49677d36bd07c5a10,EXP9b_JF,0,eab73361cfad79132c98d825c335017e7e9a5d40328f57c597eae8ab4ac2c049,2514.405365,False,keypress,EXP9b_testRsp_rv,148,[],choice-response,Longer,655e73d1a60ad4b436a1357f,2023-11-22 16:34:02-05:00,tone_Fad,1666,604,PrescreenTrials_tones_rv,PrescreenTrials,eab73,EXP9b,0,0,8
159,1304,6345b7f49677d36bd07c5a10,EXP9b_JF,0,eab73361cfad79132c98d825c335017e7e9a5d40328f57c597eae8ab4ac2c049,2514.405365,False,keypress,EXP9b_testRsp_rv,736,[],choice-response,Shorter,655e73d1a60ad4b436a1357f,2023-11-22 16:34:02-05:00,tone_Fat,2145,605,PrescreenTrials_tones_rv,PrescreenTrials,eab73,EXP9b,0,1,8
160,1305,6345b7f49677d36bd07c5a10,EXP9b_JF,0,eab73361cfad79132c98d825c335017e7e9a5d40328f57c597eae8ab4ac2c049,2514.405365,False,keypress,EXP9b_testRsp_rv,459,[],choice-response,Shorter,655e73d1a60ad4b436a1357f,2023-11-22 16:34:02-05:00,tone_Cap,1472,606,PrescreenTrials_tones_rv,PrescreenTrials,eab73,EXP9b,0,1,8
161,1306,6345b7f49677d36bd07c5a10,EXP9b_JF,0,eab73361cfad79132c98d825c335017e7e9a5d40328f57c597eae8ab4ac2c049,2514.405365,False,keypress,EXP9b_testRsp_rv,506,[],choice-response,Shorter,655e73d1a60ad4b436a1357f,2023-11-22 16:34:02-05:00,tone_Back,1556,607,PrescreenTrials_tones_rv,PrescreenTrials,eab73,EXP9b,0,1,8
162,1307,6345b7f49677d36bd07c5a10,EXP9b_JF,0,eab73361cfad79132c98d825c335017e7e9a5d40328f57c597eae8ab4ac2c049,2514.405365,False,keypress,EXP9b_testRsp_rv,194,[],choice-response,Longer,655e73d1a60ad4b436a1357f,2023-11-22 16:34:02-05:00,tone_Bag,1480,608,PrescreenTrials_tones_rv,PrescreenTrials,eab73,EXP9b,0,0,8
163,1308,6345b7f49677d36bd07c5a10,EXP9b_JF,0,eab73361cfad79132c98d825c335017e7e9a5d40328f57c597eae8ab4ac2c049,2514.405365,False,keypress,EXP9b_testRsp_rv,274,[],choice-response,Longer,655e73d1a60ad4b436a1357f,2023-11-22 16:34:02-05:00,tone_Lab,1491,609,PrescreenTrials_tones_rv,PrescreenTrials,eab73,EXP9b,0,0,8
164,1309,6345b7f49677d36bd07c5a10,EXP9b_JF,0,eab73361cfad79132c98d825c335017e7e9a5d40328f57c597eae8ab4ac2c049,2514.405365,False,keypress,EXP9b_testRsp_rv,401,[],choice-response,Shorter,655e73d1a60ad4b436a1357f,2023-11-22 16:34:02-05:00,tone_Lack,1603,610,PrescreenTrials_tones_rv,PrescreenTrials,eab73,EXP9b,0,1,8
165,1310,6345b7f49677d36bd07c5a10,EXP9b_JF,0,eab73361cfad79132c98d825c335017e7e9a5d40328f57c597eae8ab4ac2c049,2514.405365,False,keypress,EXP9b_testRsp_rv,359,[],choice-response,Shorter,655e73d1a60ad4b436a1357f,2023-11-22 16:34:02-05:00,tone_Beat,1510,611,PrescreenTrials_tones_rv,PrescreenTrials,eab73,EXP9b,0,1,8
166,1311,6345b7f49677d36bd07c5a10,EXP9b_JF,0,eab73361cfad79132c98d825c335017e7e9a5d40328f57c597eae8ab4ac2c049,2514.405365,False,keypress,EXP9b_testRsp_rv,614,[],choice-response,Shorter,655e73d1a60ad4b436a1357f,2023-11-22 16:34:02-05:00,tone_Lap,1699,612,PrescreenTrials_tones_rv,PrescreenTrials,eab73,EXP9b,0,1,8
167,1312,6345b7f49677d36bd07c5a10,EXP9b_JF,0,eab73361cfad79132c98d825c335017e7e9a5d40328f57c597eae8ab4ac2c049,2514.405365,False,keypress,EXP9b_testRsp_rv,107,[],choice-response,Longer,655e73d1a60ad4b436a1357f,2023-11-22 16:34:02-05:00,tone_Lag,1459,613,PrescreenTrials_tones_rv,PrescreenTrials,eab73,EXP9b,0,0,8
168,1313,6345b7f49677d36bd07c5a10,EXP9b_JF,0,eab73361cfad79132c98d825c335017e7e9a5d40328f57c597eae8ab4ac2c049,2514.405365,False,keypress,EXP9b_testRsp_rv,290,[],choice-response,Longer,655e73d1a60ad4b436a1357f,2023-11-22 16:34:02-05:00,tone_Cab,1576,614,PrescreenTrials_tones_rv,PrescreenTrials,eab73,EXP9b,0,0,8
169,1314,6345b7f49677d36bd07c5a10,EXP9b_JF,0,eab73361cfad79132c98d825c335017e7e9a5d40328f57c597eae8ab4ac2c049,2514.405365,False,keypress,EXP9b_testRsp_rv,255,[],choice-response,Shorter,655e73d1a60ad4b436a1357f,2023-11-22 16:34:02-05:00,tone_Lack,1564,615,PrescreenTrials_tones_rv,PrescreenTrials,eab73,EXP9b,0,1,8
170,1315,6345b7f49677d36bd07c5a10,EXP9b_JF,0,eab73361cfad79132c98d825c335017e7e9a5d40328f57c597eae8ab4ac2c049,2514.405365,False,keypress,EXP9b_testRsp_rv,716,[],choice-response,Shorter,655e73d1a60ad4b436a1357f,2023-11-22 16:34:02-05:00,tone_Fat,1908,616,PrescreenTrials_tones_rv,PrescreenTrials,eab73,EXP9b,0,1,8
171,1316,6345b7f49677d36bd07c5a10,EXP9b_JF,0,eab73361cfad79132c98d825c335017e7e9a5d40328f57c597eae8ab4ac2c049,2514.405365,False,keypress,EXP9b_testRsp_rv,187,[],choice-response,Longer,655e73d1a60ad4b436a1357f,2023-11-22 16:34:02-05:00,tone_Lag,1143,617,PrescreenTrials_tones_rv,PrescreenTrials,eab73,EXP9b,0,0,8
172,1317,6345b7f49677d36bd07c5a10,EXP9b_JF,0,eab73361cfad79132c98d825c335017e7e9a5d40328f57c597eae8ab4ac2c049,2514.405365,False,keypress,EXP9b_testRsp_rv,442,[],choice-response,Shorter,655e73d1a60ad4b436a1357f,2023-11-22 16:34:02-05:00,tone_Beat,1501,618,PrescreenTrials_tones_rv,PrescreenTrials,eab73,EXP9b,0,1,8
173,1318,6345b7f49677d36bd07c5a10,EXP9b_JF,0,eab73361cfad79132c98d825c335017e7e9a5d40328f57c597eae8ab4ac2c049,2514.405365,False,keypress,EXP9b_testRsp_rv,650,[],choice-response,Longer,655e73d1a60ad4b436a1357f,2023-11-22 16:34:02-05:00,tone_Lab,1840,619,PrescreenTrials_tones_rv,PrescreenTrials,eab73,EXP9b,0,0,8
174,1319,6345b7f49677d36bd07c5a10,EXP9b_JF,0,eab73361cfad79132c98d825c335017e7e9a5d40328f57c597eae8ab4ac2c049,2514.405365,False,keypress,EXP9b_testRsp_rv,413,[],choice-response,Longer,655e73d1a60ad4b436a1357f,2023-11-22 16:34:02-05:00,tone_Bead,1753,620,PrescreenTrials_tones_rv,PrescreenTrials,eab73,EXP9b,0,0,8
175,1320,6345b7f49677d36bd07c5a10,EXP9b_JF,0,eab73361cfad79132c98d825c335017e7e9a5d40328f57c597eae8ab4ac2c049,2514.405365,False,keypress,EXP9b_testRsp_rv,268,[],choice-response,Shorter,655e73d1a60ad4b436a1357f,2023-11-22 16:34:02-05:00,tone_Lap,1294,621,PrescreenTrials_tones_rv,PrescreenTrials,eab73,EXP9b,0,1,8
176,1321,6345b7f49677d36bd07c5a10,EXP9b_JF,0,eab73361cfad79132c98d825c335017e7e9a5d40328f57c597eae8ab4ac2c049,2514.405365,False,keypress,EXP9b_testRsp_rv,263,[],choice-response,Longer,655e73d1a60ad4b436a1357f,2023-11-22 16:34:02-05:00,tone_Fad,1829,622,PrescreenTrials_tones_rv,PrescreenTrials,eab73,EXP9b,0,0,8
177,1322,6345b7f49677d36bd07c5a10,EXP9b_JF,0,eab73361cfad79132c98d825c335017e7e9a5d40328f57c597eae8ab4ac2c049,2514.405365,False,keypress,EXP9b_testRsp_rv,338,[],choice-response,Shorter,655e73d1a60ad4b436a1357f,2023-11-22 16:34:02-05:00,tone_Cap,1394,623,PrescreenTrials_tones_rv,PrescreenTrials,eab73,EXP9b,0,1,8
178,1323,6345b7f49677d36bd07c5a10,EXP9b_JF,0,eab73361cfad79132c98d825c335017e7e9a5d40328f57c597eae8ab4ac2c049,2514.405365,False,keypress,EXP9b_testRsp_rv,383,[],choice-response,Shorter,655e73d1a60ad4b436a1357f,2023-11-22 16:34:02-05:00,tone_Back,1501,624,PrescreenTrials_tones_rv,PrescreenTrials,eab73,EXP9b,0,1,8
179,1324,6345b7f49677d36bd07c5a10,EXP9b_JF,0,eab73361cfad79132c98d825c335017e7e9a5d40328f57c597eae8ab4ac2c049,2514.405365,False,keypress,EXP9b_testRsp_rv,257,[],choice-response,Longer,655e73d1a60ad4b436a1357f,2023-11-22 16:34:02-05:00,tone_Bag,1553,625,PrescreenTrials_tones_rv,PrescreenTrials,eab73,EXP9b,0,0,8
180,1325,6345b7f49677d36bd07c5a10,EXP9b_JF,0,eab73361cfad79132c98d825c335017e7e9a5d40328f57c597eae8ab4ac2c049,2514.405365,False,keypress,EXP9b_testRsp_rv,672,[],choice-response,Shorter,655e73d1a60ad4b436a1357f,2023-11-22 16:34:02-05:00,tone_Bag,1515,626,PrescreenTrials_tones_rv,PrescreenTrials,eab73,EXP9b,0,1,8
181,1326,6345b7f49677d36bd07c5a10,EXP9b_JF,0,eab73361cfad79132c98d825c335017e7e9a5d40328f57c597eae8ab4ac2c049,2514.405365,False,keypress,EXP9b_testRsp_rv,295,[],choice-response,Longer,655e73d1a60ad4b436a1357f,2023-11-22 16:34:02-05:00,tone_Cap,1487,627,PrescreenTrials_tones_rv,PrescreenTrials,eab73,EXP9b,0,0,8
182,1327,6345b7f49677d36bd07c5a10,EXP9b_JF,0,eab73361cfad79132c98d825c335017e7e9a5d40328f57c597eae8ab4ac2c049,2514.405365,False,keypress,EXP9b_testRsp_rv,245,[],choice-response,Longer,655e73d1a60ad4b436a1357f,2023-11-22 16:34:02-05:00,tone_Lag,1624,628,PrescreenTrials_tones_rv,PrescreenTrials,eab73,EXP9b,0,0,8
183,1328,6345b7f49677d36bd07c5a10,EXP9b_JF,0,eab73361cfad79132c98d825c335017e7e9a5d40328f57c597eae8ab4ac2c049,2514.405365,False,keypress,EXP9b_testRsp_rv,411,[],choice-response,Longer,655e73d1a60ad4b436a1357f,2023-11-22 16:34:02-05:00,tone_Cab,1573,629,PrescreenTrials_tones_rv,PrescreenTrials,eab73,EXP9b,0,0,8
184,1329,6345b7f49677d36bd07c5a10,EXP9b_JF,0,eab73361cfad79132c98d825c335017e7e9a5d40328f57c597eae8ab4ac2c049,2514.405365,False,keypress,EXP9b_testRsp_rv,329,[],choice-response,Shorter,655e73d1a60ad4b436a1357f,2023-11-22 16:34:02-05:00,tone_Beat,1569,630,PrescreenTrials_tones_rv,PrescreenTrials,eab73,EXP9b,0,1,8
185,1330,6345b7f49677d36bd07c5a10,EXP9b_JF,0,eab73361cfad79132c98d825c335017e7e9a5d40328f57c597eae8ab4ac2c049,2514.405365,False,keypress,EXP9b_testRsp_rv,419,[],choice-response,Shorter,655e73d1a60ad4b436a1357f,2023-11-22 16:34:02-05:00,tone_Back,1629,631,PrescreenTrials_tones_rv,PrescreenTrials,eab73,EXP9b,0,1,8
186,1331,6345b7f49677d36bd07c5a10,EXP9b_JF,0,eab73361cfad79132c98d825c335017e7e9a5d40328f57c597eae8ab4ac2c049,2514.405365,False,keypress,EXP9b_testRsp_rv,190,[],choice-response,Longer,655e73d1a60ad4b436a1357f,2023-11-22 16:34:02-05:00,tone_Bead,1527,632,PrescreenTrials_tones_rv,PrescreenTrials,eab73,EXP9b,0,0,8
187,1332,6345b7f49677d36bd07c5a10,EXP9b_JF,0,eab73361cfad79132c98d825c335017e7e9a5d40328f57c597eae8ab4ac2c049,2514.405365,False,keypress,EXP9b_testRsp_rv,569,[],choice-response,Shorter,655e73d1a60ad4b436a1357f,2023-11-22 16:34:02-05:00,tone_Lap,1640,633,PrescreenTrials_tones_rv,PrescreenTrials,eab73,EXP9b,0,1,8
188,1333,6345b7f49677d36bd07c5a10,EXP9b_JF,0,eab73361cfad79132c98d825c335017e7e9a5d40328f57c597eae8ab4ac2c049,2514.405365,False,keypress,EXP9b_testRsp_rv,251,[],choice-response,Longer,655e73d1a60ad4b436a1357f,2023-11-22 16:34:02-05:00,tone_Lab,1705,634,PrescreenTrials_tones_rv,PrescreenTrials,eab73,EXP9b,0,0,8
189,1334,6345b7f49677d36bd07c5a10,EXP9b_JF,0,eab73361cfad79132c98d825c335017e7e9a5d40328f57c597eae8ab4ac2c049,2514.405365,False,keypress,EXP9b_testRsp_rv,69,[],choice-response,Longer,655e73d1a60ad4b436a1357f,2023-11-22 16:34:02-05:00,tone_Fad,1533,635,PrescreenTrials_tones_rv,PrescreenTrials,eab73,EXP9b,0,0,8
190,1335,6345b7f49677d36bd07c5a10,EXP9b_JF,0,eab73361cfad79132c98d825c335017e7e9a5d40328f57c597eae8ab4ac2c049,2514.405365,False,keypress,EXP9b_testRsp_rv,905,[],choice-response,Shorter,655e73d1a60ad4b436a1357f,2023-11-22 16:34:02-05:00,tone_Fat,2158,636,PrescreenTrials_tones_rv,PrescreenTrials,eab73,EXP9b,0,1,8
191,1336,6345b7f49677d36bd07c5a10,EXP9b_JF,0,eab73361cfad79132c98d825c335017e7e9a5d40328f57c597eae8ab4ac2c049,2514.405365,False,keypress,EXP9b_testRsp_rv,913,[],choice-response,Shorter,655e73d1a60ad4b436a1357f,2023-11-22 16:34:02-05:00,tone_Lack,2328,637,PrescreenTrials_tones_rv,PrescreenTrials,eab73,EXP9b,0,1,8
192,1337,6345b7f49677d36bd07c5a10,EXP9b_JF,0,eab73361cfad79132c98d825c335017e7e9a5d40328f57c597eae8ab4ac2c049,2514.405365,False,keypress,EXP9b_testRsp_rv,257,[],choice-response,Longer,655e73d1a60ad4b436a1357f,2023-11-22 16:34:02-05:00,tone_Bead,1493,638,PrescreenTrials_tones_rv,PrescreenTrials,eab73,EXP9b,0,0,8
193,1338,6345b7f49677d36bd07c5a10,EXP9b_JF,0,eab73361cfad79132c98d825c335017e7e9a5d40328f57c597eae8ab4ac2c049,2514.405365,False,keypress,EXP9b_testRsp_rv,396,[],choice-response,Longer,655e73d1a60ad4b436a1357f,2023-11-22 16:34:02-05:00,tone_Lab,1782,639,PrescreenTrials_tones_rv,PrescreenTrials,eab73,EXP9b,0,0,8
194,1339,6345b7f49677d36bd07c5a10,EXP9b_JF,0,eab73361cfad79132c98d825c335017e7e9a5d40328f57c597eae8ab4ac2c049,2514.405365,False,keypress,EXP9b_testRsp_rv,231,[],choice-response,Longer,655e73d1a60ad4b436a1357f,2023-11-22 16:34:02-05:00,tone_Fad,1822,640,PrescreenTrials_tones_rv,PrescreenTrials,eab73,EXP9b,0,0,8
195,1340,6345b7f49677d36bd07c5a10,EXP9b_JF,0,eab73361cfad79132c98d825c335017e7e9a5d40328f57c597eae8ab4ac2c049,2514.405365,False,keypress,EXP9b_testRsp_rv,301,[],choice-response,Shorter,655e73d1a60ad4b436a1357f,2023-11-22 16:34:02-05:00,tone_Lap,1491,641,PrescreenTrials_tones_rv,PrescreenTrials,eab73,EXP9b,0,1,8
196,1341,6345b7f49677d36bd07c5a10,EXP9b_JF,0,eab73361cfad79132c98d825c335017e7e9a5d40328f57c597eae8ab4ac2c049,2514.405365,False,keypress,EXP9b_testRsp_rv,292,[],choice-response,Longer,655e73d1a60ad4b436a1357f,2023-11-22 16:34:02-05:00,tone_Cab,1854,642,PrescreenTrials_tones_rv,PrescreenTrials,eab73,EXP9b,0,0,8
197,1342,6345b7f49677d36bd07c5a10,EXP9b_JF,0,eab73361cfad79132c98d825c335017e7e9a5d40328f57c597eae8ab4ac2c049,2514.405365,False,keypress,EXP9b_testRsp_rv,312,[],choice-response,Shorter,655e73d1a60ad4b436a1357f,2023-11-22 16:34:02-05:00,tone_Back,1414,643,PrescreenTrials_tones_rv,PrescreenTrials,eab73,EXP9b,0,1,8
198,1343,6345b7f49677d36bd07c5a10,EXP9b_JF,0,eab73361cfad79132c98d825c335017e7e9a5d40328f57c597eae8ab4ac2c049,2514.405365,False,keypress,EXP9b_testRsp_rv,481,[],choice-response,Shorter,655e73d1a60ad4b436a1357f,2023-11-22 16:34:02-05:00,tone_Cap,1476,644,PrescreenTrials_tones_rv,PrescreenTrials,eab73,EXP9b,0,1,8
199,1344,6345b7f49677d36bd07c5a10,EXP9b_JF,0,eab73361cfad79132c98d825c335017e7e9a5d40328f57c597eae8ab4ac2c049,2514.405365,False,keypress,EXP9b_testRsp_rv,1368,[],choice-response,Shorter,655e73d1a60ad4b436a1357f,2023-11-22 16:34:02-05:00,tone_Lack,2655,645,PrescreenTrials_tones_rv,PrescreenTrials,eab73,EXP9b,0,1,8
200,1345,6345b7f49677d36bd07c5a10,EXP9b_JF,0,eab73361cfad79132c98d825c335017e7e9a5d40328f57c597eae8ab4ac2c049,2514.405365,False,keypress,EXP9b_testRsp_rv,217,[],choice-response,Longer,655e73d1a60ad4b436a1357f,2023-11-22 16:34:02-05:00,tone_Lag,1733,646,PrescreenTrials_tones_rv,PrescreenTrials,eab73,EXP9b,0,0,8
201,1346,6345b7f49677d36bd07c5a10,EXP9b_JF,0,eab73361cfad79132c98d825c335017e7e9a5d40328f57c597eae8ab4ac2c049,2514.405365,False,keypress,EXP9b_testRsp_rv,723,[],choice-response,Longer,655e73d1a60ad4b436a1357f,2023-11-22 16:34:02-05:00,tone_Fat,2166,647,PrescreenTrials_tones_rv,PrescreenTrials,eab73,EXP9b,0,0,8
202,1347,6345b7f49677d36bd07c5a10,EXP9b_JF,0,eab73361cfad79132c98d825c335017e7e9a5d40328f57c597eae8ab4ac2c049,2514.405365,False,keypress,EXP9b_testRsp_rv,806,[],choice-response,Shorter,655e73d1a60ad4b436a1357f,2023-11-22 16:34:02-05:00,tone_Beat,1938,648,PrescreenTrials_tones_rv,PrescreenTrials,eab73,EXP9b,0,1,8
203,1348,6345b7f49677d36bd07c5a10,EXP9b_JF,0,eab73361cfad79132c98d825c335017e7e9a5d40328f57c597eae8ab4ac2c049,2514.405365,False,keypress,EXP9b_testRsp_rv,205,[],choice-response,Longer,655e73d1a60ad4b436a1357f,2023-11-22 16:34:02-05:00,tone_Bag,1607,649,PrescreenTrials_tones_rv,PrescreenTrials,eab73,EXP9b,0,0,8
204,1349,6345b7f49677d36bd07c5a10,EXP9b_JF,0,eab73361cfad79132c98d825c335017e7e9a5d40328f57c597eae8ab4ac2c049,2514.405365,False,keypress,EXP9b_testRsp_rv,288,[],choice-response,Longer,655e73d1a60ad4b436a1357f,2023-11-22 16:34:02-05:00,tone_Lab,1722,650,PrescreenTrials_tones_rv,PrescreenTrials,eab73,EXP9b,0,0,8
205,1350,6345b7f49677d36bd07c5a10,EXP9b_JF,0,eab73361cfad79132c98d825c335017e7e9a5d40328f57c597eae8ab4ac2c049,2514.405365,False,keypress,EXP9b_testRsp_rv,397,[],choice-response,Longer,655e73d1a60ad4b436a1357f,2023-11-22 16:34:02-05:00,tone_Bead,2366,651,PrescreenTrials_tones_rv,PrescreenTrials,eab73,EXP9b,0,0,8
206,1351,6345b7f49677d36bd07c5a10,EXP9b_JF,0,eab73361cfad79132c98d825c335017e7e9a5d40328f57c597eae8ab4ac2c049,2514.405365,False,keypress,EXP9b_testRsp_rv,262,[],choice-response,Longer,655e73d1a60ad4b436a1357f,2023-11-22 16:34:02-05:00,tone_Cab,1526,652,PrescreenTrials_tones_rv,PrescreenTrials,eab73,EXP9b,0,0,8
207,1352,6345b7f49677d36bd07c5a10,EXP9b_JF,0,eab73361cfad79132c98d825c335017e7e9a5d40328f57c597eae8ab4ac2c049,2514.405365,False,keypress,EXP9b_testRsp_rv,521,[],choice-response,Longer,655e73d1a60ad4b436a1357f,2023-11-22 16:34:02-05:00,tone_Lag,1752,653,PrescreenTrials_tones_rv,PrescreenTrials,eab73,EXP9b,0,0,8
208,1353,6345b7f49677d36bd07c5a10,EXP9b_JF,0,eab73361cfad79132c98d825c335017e7e9a5d40328f57c597eae8ab4ac2c049,2514.405365,False,keypress,EXP9b_testRsp_rv,369,[],choice-response,Shorter,655e73d1a60ad4b436a1357f,2023-11-22 16:34:02-05:00,tone_Cap,1423,654,PrescreenTrials_tones_rv,PrescreenTrials,eab73,EXP9b,0,1,8
209,1354,6345b7f49677d36bd07c5a10,EXP9b_JF,0,eab73361cfad79132c98d825c335017e7e9a5d40328f57c597eae8ab4ac2c049,2514.405365,False,keypress,EXP9b_testRsp_rv,429,[],choice-response,Shorter,655e73d1a60ad4b436a1357f,2023-11-22 16:34:02-05:00,tone_Back,1870,655,PrescreenTrials_tones_rv,PrescreenTrials,eab73,EXP9b,0,1,8
210,1355,6345b7f49677d36bd07c5a10,EXP9b_JF,0,eab73361cfad79132c98d825c335017e7e9a5d40328f57c597eae8ab4ac2c049,2514.405365,False,keypress,EXP9b_testRsp_rv,251,[],choice-response,Longer,655e73d1a60ad4b436a1357f,2023-11-22 16:34:02-05:00,tone_Fad,1882,656,PrescreenTrials_tones_rv,PrescreenTrials,eab73,EXP9b,0,0,8
211,1356,6345b7f49677d36bd07c5a10,EXP9b_JF,0,eab73361cfad79132c98d825c335017e7e9a5d40328f57c597eae8ab4ac2c049,2514.405365,False,keypress,EXP9b_testRsp_rv,479,[],choice-response,Shorter,655e73d1a60ad4b436a1357f,2023-11-22 16:34:02-05:00,tone_Beat,1763,657,PrescreenTrials_tones_rv,PrescreenTrials,eab73,EXP9b,0,1,8
212,1357,6345b7f49677d36bd07c5a10,EXP9b_JF,0,eab73361cfad79132c98d825c335017e7e9a5d40328f57c597eae8ab4ac2c049,2514.405365,False,keypress,EXP9b_testRsp_rv,288,[],choice-response,Longer,655e73d1a60ad4b436a1357f,2023-11-22 16:34:02-05:00,tone_Bag,1501,658,PrescreenTrials_tones_rv,PrescreenTrials,eab73,EXP9b,0,0,8
213,1358,6345b7f49677d36bd07c5a10,EXP9b_JF,0,eab73361cfad79132c98d825c335017e7e9a5d40328f57c597eae8ab4ac2c049,2514.405365,False,keypress,EXP9b_testRsp_rv,863,[],choice-response,Shorter,655e73d1a60ad4b436a1357f,2023-11-22 16:34:02-05:00,tone_Fat,2132,659,PrescreenTrials_tones_rv,PrescreenTrials,eab73,EXP9b,0,1,8
214,1359,6345b7f49677d36bd07c5a10,EXP9b_JF,0,eab73361cfad79132c98d825c335017e7e9a5d40328f57c597eae8ab4ac2c049,2514.405365,False,keypress,EXP9b_testRsp_rv,654,[],choice-response,Longer,655e73d1a60ad4b436a1357f,2023-11-22 16:34:02-05:00,tone_Lack,1785,660,PrescreenTrials_tones_rv,PrescreenTrials,eab73,EXP9b,0,0,8
215,1360,6345b7f49677d36bd07c5a10,EXP9b_JF,0,eab73361cfad79132c98d825c335017e7e9a5d40328f57c597eae8ab4ac2c049,2514.405365,False,keypress,EXP9b_testRsp_rv,634,[],choice-response,Shorter,655e73d1a60ad4b436a1357f,2023-11-22 16:34:02-05:00,tone_Lap,1682,661,PrescreenTrials_tones_rv,PrescreenTrials,eab73,EXP9b,0,1,8
216,1361,6345b7f49677d36bd07c5a10,EXP9b_JF,0,eab73361cfad79132c98d825c335017e7e9a5d40328f57c597eae8ab4ac2c049,2514.405365,False,keypress,EXP9b_testRsp_rv,382,[],choice-response,Shorter,655e73d1a60ad4b436a1357f,2023-11-22 16:34:02-05:00,tone_Back,1625,662,PrescreenTrials_tones_rv,PrescreenTrials,eab73,EXP9b,0,1,8
217,1362,6345b7f49677d36bd07c5a10,EXP9b_JF,0,eab73361cfad79132c98d825c335017e7e9a5d40328f57c597eae8ab4ac2c049,2514.405365,False,keypress,EXP9b_testRsp_rv,267,[],choice-response,Longer,655e73d1a60ad4b436a1357f,2023-11-22 16:34:02-05:00,tone_Lag,1542,663,PrescreenTrials_tones_rv,PrescreenTrials,eab73,EXP9b,0,0,8
218,1363,6345b7f49677d36bd07c5a10,EXP9b_JF,0,eab73361cfad79132c98d825c335017e7e9a5d40328f57c597eae8ab4ac2c049,2514.405365,False,keypress,EXP9b_testRsp_rv,479,[],choice-response,Shorter,655e73d1a60ad4b436a1357f,2023-11-22 16:34:02-05:00,tone_Lap,1185,664,PrescreenTrials_tones_rv,PrescreenTrials,eab73,EXP9b,0,1,8
219,1364,6345b7f49677d36bd07c5a10,EXP9b_JF,0,eab73361cfad79132c98d825c335017e7e9a5d40328f57c597eae8ab4ac2c049,2514.405365,False,keypress,EXP9b_testRsp_rv,355,[],choice-response,Shorter,655e73d1a60ad4b436a1357f,2023-11-22 16:34:02-05:00,tone_Cap,1378,665,PrescreenTrials_tones_rv,PrescreenTrials,eab73,EXP9b,0,1,8
220,1365,6345b7f49677d36bd07c5a10,EXP9b_JF,0,eab73361cfad79132c98d825c335017e7e9a5d40328f57c597eae8ab4ac2c049,2514.405365,False,keypress,EXP9b_testRsp_rv,241,[],choice-response,Longer,655e73d1a60ad4b436a1357f,2023-11-22 16:34:02-05:00,tone_Lab,1545,666,PrescreenTrials_tones_rv,PrescreenTrials,eab73,EXP9b,0,0,8
221,1366,6345b7f49677d36bd07c5a10,EXP9b_JF,0,eab73361cfad79132c98d825c335017e7e9a5d40328f57c597eae8ab4ac2c049,2514.405365,False,keypress,EXP9b_testRsp_rv,368,[],choice-response,Shorter,655e73d1a60ad4b436a1357f,2023-11-22 16:34:02-05:00,tone_Lack,1421,667,PrescreenTrials_tones_rv,PrescreenTrials,eab73,EXP9b,0,1,8
222,1367,6345b7f49677d36bd07c5a10,EXP9b_JF,0,eab73361cfad79132c98d825c335017e7e9a5d40328f57c597eae8ab4ac2c049,2514.405365,False,keypress,EXP9b_testRsp_rv,269,[],choice-response,Longer,655e73d1a60ad4b436a1357f,2023-11-22 16:34:02-05:00,tone_Bag,1994,668,PrescreenTrials_tones_rv,PrescreenTrials,eab73,EXP9b,0,0,8
223,1368,6345b7f49677d36bd07c5a10,EXP9b_JF,0,eab73361cfad79132c98d825c335017e7e9a5d40328f57c597eae8ab4ac2c049,2514.405365,False,keypress,EXP9b_testRsp_rv,532,[],choice-response,Longer,655e73d1a60ad4b436a1357f,2023-11-22 16:34:02-05:00,tone_Cab,1761,669,PrescreenTrials_tones_rv,PrescreenTrials,eab73,EXP9b,0,0,8
224,1369,6345b7f49677d36bd07c5a10,EXP9b_JF,0,eab73361cfad79132c98d825c335017e7e9a5d40328f57c597eae8ab4ac2c049,2514.405365,False,keypress,EXP9b_testRsp_rv,591,[],choice-response,Shorter,655e73d1a60ad4b436a1357f,2023-11-22 16:34:02-05:00,tone_Beat,1798,670,PrescreenTrials_tones_rv,PrescreenTrials,eab73,EXP9b,0,1,8
225,1370,6345b7f49677d36bd07c5a10,EXP9b_JF,0,eab73361cfad79132c98d825c335017e7e9a5d40328f57c597eae8ab4ac2c049,2514.405365,False,keypress,EXP9b_testRsp_rv,633,[],choice-response,Longer,655e73d1a60ad4b436a1357f,2023-11-22 16:34:02-05:00,tone_Bead,1997,671,PrescreenTrials_tones_rv,PrescreenTrials,eab73,EXP9b,0,0,8
226,1371,6345b7f49677d36bd07c5a10,EXP9b_JF,0,eab73361cfad79132c98d825c335017e7e9a5d40328f57c597eae8ab4ac2c049,2514.405365,False,keypress,EXP9b_testRsp_rv,395,[],choice-response,Shorter,655e73d1a60ad4b436a1357f,2023-11-22 16:34:02-05:00,tone_Fat,1705,672,PrescreenTrials_tones_rv,PrescreenTrials,eab73,EXP9b,0,1,8
227,1372,6345b7f49677d36bd07c5a10,EXP9b_JF,0,eab73361cfad79132c98d825c335017e7e9a5d40328f57c597eae8ab4ac2c049,2514.405365,False,keypress,EXP9b_testRsp_rv,382,[],choice-response,Longer,655e73d1a60ad4b436a1357f,2023-11-22 16:34:02-05:00,tone_Fad,1933,673,PrescreenTrials_tones_rv,PrescreenTrials,eab73,EXP9b,0,0,8
228,1373,6345b7f49677d36bd07c5a10,EXP9b_JF,0,eab73361cfad79132c98d825c335017e7e9a5d40328f57c597eae8ab4ac2c049,2514.405365,False,keypress,EXP9b_testRsp_rv,302,[],choice-response,Shorter,655e73d1a60ad4b436a1357f,2023-11-22 16:34:02-05:00,tone_Lab,1459,674,PrescreenTrials_tones_rv,PrescreenTrials,eab73,EXP9b,0,1,8
229,1374,6345b7f49677d36bd07c5a10,EXP9b_JF,0,eab73361cfad79132c98d825c335017e7e9a5d40328f57c597eae8ab4ac2c049,2514.405365,False,keypress,EXP9b_testRsp_rv,452,[],choice-response,Longer,655e73d1a60ad4b436a1357f,2023-11-22 16:34:02-05:00,tone_Bead,2395,675,PrescreenTrials_tones_rv,PrescreenTrials,eab73,EXP9b,0,0,8
230,1375,6345b7f49677d36bd07c5a10,EXP9b_JF,0,eab73361cfad79132c98d825c335017e7e9a5d40328f57c597eae8ab4ac2c049,2514.405365,False,keypress,EXP9b_testRsp_rv,306,[],choice-response,Longer,655e73d1a60ad4b436a1357f,2023-11-22 16:34:02-05:00,tone_Bag,1559,676,PrescreenTrials_tones_rv,PrescreenTrials,eab73,EXP9b,0,0,8
231,1376,6345b7f49677d36bd07c5a10,EXP9b_JF,0,eab73361cfad79132c98d825c335017e7e9a5d40328f57c597eae8ab4ac2c049,2514.405365,False,keypress,EXP9b_testRsp_rv,445,[],choice-response,Shorter,655e73d1a60ad4b436a1357f,2023-11-22 16:34:02-05:00,tone_Fat,1679,677,PrescreenTrials_tones_rv,PrescreenTrials,eab73,EXP9b,0,1,8
232,1377,6345b7f49677d36bd07c5a10,EXP9b_JF,0,eab73361cfad79132c98d825c335017e7e9a5d40328f57c597eae8ab4ac2c049,2514.405365,False,keypress,EXP9b_testRsp_rv,426,[],choice-response,Shorter,655e73d1a60ad4b436a1357f,2023-11-22 16:34:02-05:00,tone_Cap,1719,678,PrescreenTrials_tones_rv,PrescreenTrials,eab73,EXP9b,0,1,8
233,1378,6345b7f49677d36bd07c5a10,EXP9b_JF,0,eab73361cfad79132c98d825c335017e7e9a5d40328f57c597eae8ab4ac2c049,2514.405365,False,keypress,EXP9b_testRsp_rv,552,[],choice-response,Longer,655e73d1a60ad4b436a1357f,2023-11-22 16:34:02-05:00,tone_Lack,1799,679,PrescreenTrials_tones_rv,PrescreenTrials,eab73,EXP9b,0,0,8
234,1379,6345b7f49677d36bd07c5a10,EXP9b_JF,0,eab73361cfad79132c98d825c335017e7e9a5d40328f57c597eae8ab4ac2c049,2514.405365,False,keypress,EXP9b_testRsp_rv,656,[],choice-response,Shorter,655e73d1a60ad4b436a1357f,2023-11-22 16:34:02-05:00,tone_Lap,1753,680,PrescreenTrials_tones_rv,PrescreenTrials,eab73,EXP9b,0,1,8
235,1380,6345b7f49677d36bd07c5a10,EXP9b_JF,0,eab73361cfad79132c98d825c335017e7e9a5d40328f57c597eae8ab4ac2c049,2514.405365,False,keypress,EXP9b_testRsp_rv,55,[],choice-response,Longer,655e73d1a60ad4b436a1357f,2023-11-22 16:34:02-05:00,tone_Cab,1226,681,PrescreenTrials_tones_rv,PrescreenTrials,eab73,EXP9b,0,0,8
236,1381,6345b7f49677d36bd07c5a10,EXP9b_JF,0,eab73361cfad79132c98d825c335017e7e9a5d40328f57c597eae8ab4ac2c049,2514.405365,False,keypress,EXP9b_testRsp_rv,551,[],choice-response,Longer,655e73d1a60ad4b436a1357f,2023-11-22 16:34:02-05:00,tone_Lag,1828,682,PrescreenTrials_tones_rv,PrescreenTrials,eab73,EXP9b,0,0,8
237,1382,6345b7f49677d36bd07c5a10,EXP9b_JF,0,eab73361cfad79132c98d825c335017e7e9a5d40328f57c597eae8ab4ac2c049,2514.405365,False,keypress,EXP9b_testRsp_rv,3962,[],choice-response,Longer,655e73d1a60ad4b436a1357f,2023-11-22 16:34:02-05:00,tone_Fad,5469,683,PrescreenTrials_tones_rv,PrescreenTrials,eab73,EXP9b,0,0,8
238,1383,6345b7f49677d36bd07c5a10,EXP9b_JF,0,eab73361cfad79132c98d825c335017e7e9a5d40328f57c597eae8ab4ac2c049,2514.405365,False,keypress,EXP9b_testRsp_rv,363,[],choice-response,Shorter,655e73d1a60ad4b436a1357f,2023-11-22 16:34:02-05:00,tone_Back,1469,684,PrescreenTrials_tones_rv,PrescreenTrials,eab73,EXP9b,0,1,8
239,1384,6345b7f49677d36bd07c5a10,EXP9b_JF,0,eab73361cfad79132c98d825c335017e7e9a5d40328f57c597eae8ab4ac2c049,2514.405365,False,keypress,EXP9b_testRsp_rv,589,[],choice-response,Shorter,655e73d1a60ad4b436a1357f,2023-11-22 16:34:02-05:00,tone_Beat,2672,685,PrescreenTrials_tones_rv,PrescreenTrials,eab73,EXP9b,0,1,8
240,1965,6345b7f49677d36bd07c5a10,EXP9b_FJ,0,11d49c0f51683b5487aea80a7c16f4dacc921086ac1a3f5418b6e9bc1c7fb7c6,2907.663342,False,keypress,EXP9b_testRsp,1693,[],choice-response,Longer,655e73d1a60ad4b436a1357f,2023-11-22 16:34:02-05:00,tone_Lab,3727,566,PrescreenTrials_tones,PrescreenTrials,11d49,EXP9b,0,0,8
241,1966,6345b7f49677d36bd07c5a10,EXP9b_FJ,0,11d49c0f51683b5487aea80a7c16f4dacc921086ac1a3f5418b6e9bc1c7fb7c6,2907.663342,False,keypress,EXP9b_testRsp,610,[],choice-response,Longer,655e73d1a60ad4b436a1357f,2023-11-22 16:34:02-05:00,tone_Bag,2073,567,PrescreenTrials_tones,PrescreenTrials,11d49,EXP9b,0,0,8
242,1967,6345b7f49677d36bd07c5a10,EXP9b_FJ,0,11d49c0f51683b5487aea80a7c16f4dacc921086ac1a3f5418b6e9bc1c7fb7c6,2907.663342,False,keypress,EXP9b_testRsp,404,[],choice-response,Shorter,655e73d1a60ad4b436a1357f,2023-11-22 16:34:02-05:00,tone_Back,1412,568,PrescreenTrials_tones,PrescreenTrials,11d49,EXP9b,0,1,8
243,1968,6345b7f49677d36bd07c5a10,EXP9b_FJ,0,11d49c0f51683b5487aea80a7c16f4dacc921086ac1a3f5418b6e9bc1c7fb7c6,2907.663342,False,keypress,EXP9b_testRsp,370,[],choice-response,Longer,655e73d1a60ad4b436a1357f,2023-11-22 16:34:02-05:00,tone_Beat,1435,569,PrescreenTrials_tones,PrescreenTrials,11d49,EXP9b,0,0,8
244,1969,6345b7f49677d36bd07c5a10,EXP9b_FJ,0,11d49c0f51683b5487aea80a7c16f4dacc921086ac1a3f5418b6e9bc1c7fb7c6,2907.663342,False,keypress,EXP9b_testRsp,409,[],choice-response,Longer,655e73d1a60ad4b436a1357f,2023-11-22 16:34:02-05:00,tone_Lap,1452,570,PrescreenTrials_tones,PrescreenTrials,11d49,EXP9b,0,0,8
245,1970,6345b7f49677d36bd07c5a10,EXP9b_FJ,0,11d49c0f51683b5487aea80a7c16f4dacc921086ac1a3f5418b6e9bc1c7fb7c6,2907.663342,False,keypress,EXP9b_testRsp,268,[],choice-response,Longer,655e73d1a60ad4b436a1357f,2023-11-22 16:34:02-05:00,tone_Bead,1673,571,PrescreenTrials_tones,PrescreenTrials,11d49,EXP9b,0,0,8
246,1971,6345b7f49677d36bd07c5a10,EXP9b_FJ,0,11d49c0f51683b5487aea80a7c16f4dacc921086ac1a3f5418b6e9bc1c7fb7c6,2907.663342,False,keypress,EXP9b_testRsp,373,[],choice-response,Shorter,655e73d1a60ad4b436a1357f,2023-11-22 16:34:02-05:00,tone_Lack,1321,572,PrescreenTrials_tones,PrescreenTrials,11d49,EXP9b,0,1,8
247,1972,6345b7f49677d36bd07c5a10,EXP9b_FJ,0,11d49c0f51683b5487aea80a7c16f4dacc921086ac1a3f5418b6e9bc1c7fb7c6,2907.663342,False,keypress,EXP9b_testRsp,319,[],choice-response,Longer,655e73d1a60ad4b436a1357f,2023-11-22 16:34:02-05:00,tone_Lag,1427,573,PrescreenTrials_tones,PrescreenTrials,11d49,EXP9b,0,0,8
248,1973,6345b7f49677d36bd07c5a10,EXP9b_FJ,0,11d49c0f51683b5487aea80a7c16f4dacc921086ac1a3f5418b6e9bc1c7fb7c6,2907.663342,False,keypress,EXP9b_testRsp,326,[],choice-response,Longer,655e73d1a60ad4b436a1357f,2023-11-22 16:34:02-05:00,tone_Fad,1667,574,PrescreenTrials_tones,PrescreenTrials,11d49,EXP9b,0,0,8
249,1974,6345b7f49677d36bd07c5a10,EXP9b_FJ,0,11d49c0f51683b5487aea80a7c16f4dacc921086ac1a3f5418b6e9bc1c7fb7c6,2907.663342,False,keypress,EXP9b_testRsp,525,[],choice-response,Shorter,655e73d1a60ad4b436a1357f,2023-11-22 16:34:02-05:00,tone_Fat,1922,575,PrescreenTrials_tones,PrescreenTrials,11d49,EXP9b,0,1,8
250,1975,6345b7f49677d36bd07c5a10,EXP9b_FJ,0,11d49c0f51683b5487aea80a7c16f4dacc921086ac1a3f5418b6e9bc1c7fb7c6,2907.663342,False,keypress,EXP9b_testRsp,288,[],choice-response,Longer,655e73d1a60ad4b436a1357f,2023-11-22 16:34:02-05:00,tone_Cab,1514,576,PrescreenTrials_tones,PrescreenTrials,11d49,EXP9b,0,0,8
251,1976,6345b7f49677d36bd07c5a10,EXP9b_FJ,0,11d49c0f51683b5487aea80a7c16f4dacc921086ac1a3f5418b6e9bc1c7fb7c6,2907.663342,False,keypress,EXP9b_testRsp,342,[],choice-response,Shorter,655e73d1a60ad4b436a1357f,2023-11-22 16:34:02-05:00,tone_Cap,1308,577,PrescreenTrials_tones,PrescreenTrials,11d49,EXP9b,0,1,8
252,1977,6345b7f49677d36bd07c5a10,EXP9b_FJ,0,11d49c0f51683b5487aea80a7c16f4dacc921086ac1a3f5418b6e9bc1c7fb7c6,2907.663342,False,keypress,EXP9b_testRsp,244,[],choice-response,Longer,655e73d1a60ad4b436a1357f,2023-11-22 16:34:02-05:00,tone_Lag,1129,578,PrescreenTrials_tones,PrescreenTrials,11d49,EXP9b,0,0,8
253,1978,6345b7f49677d36bd07c5a10,EXP9b_FJ,0,11d49c0f51683b5487aea80a7c16f4dacc921086ac1a3f5418b6e9bc1c7fb7c6,2907.663342,False,keypress,EXP9b_testRsp,605,[],choice-response,Shorter,655e73d1a60ad4b436a1357f,2023-11-22 16:34:02-05:00,tone_Fat,1448,579,PrescreenTrials_tones,PrescreenTrials,11d49,EXP9b,0,1,8
254,1979,6345b7f49677d36bd07c5a10,EXP9b_FJ,0,11d49c0f51683b5487aea80a7c16f4dacc921086ac1a3f5418b6e9bc1c7fb7c6,2907.663342,False,keypress,EXP9b_testRsp,351,[],choice-response,Shorter,655e73d1a60ad4b436a1357f,2023-11-22 16:34:02-05:00,tone_Lap,1021,580,PrescreenTrials_tones,PrescreenTrials,11d49,EXP9b,0,1,8
255,1980,6345b7f49677d36bd07c5a10,EXP9b_FJ,0,11d49c0f51683b5487aea80a7c16f4dacc921086ac1a3f5418b6e9bc1c7fb7c6,2907.663342,False,keypress,EXP9b_testRsp,351,[],choice-response,Longer,655e73d1a60ad4b436a1357f,2023-11-22 16:34:02-05:00,tone_Bag,1186,581,PrescreenTrials_tones,PrescreenTrials,11d49,EXP9b,0,0,8
256,1981,6345b7f49677d36bd07c5a10,EXP9b_FJ,0,11d49c0f51683b5487aea80a7c16f4dacc921086ac1a3f5418b6e9bc1c7fb7c6,2907.663342,False,keypress,EXP9b_testRsp,416,[],choice-response,Shorter,655e73d1a60ad4b436a1357f,2023-11-22 16:34:02-05:00,tone_Beat,1125,582,PrescreenTrials_tones,PrescreenTrials,11d49,EXP9b,0,1,8
257,1982,6345b7f49677d36bd07c5a10,EXP9b_FJ,0,11d49c0f51683b5487aea80a7c16f4dacc921086ac1a3f5418b6e9bc1c7fb7c6,2907.663342,False,keypress,EXP9b_testRsp,431,[],choice-response,Longer,655e73d1a60ad4b436a1357f,2023-11-22 16:34:02-05:00,tone_Fad,1471,583,PrescreenTrials_tones,PrescreenTrials,11d49,EXP9b,0,0,8
258,1983,6345b7f49677d36bd07c5a10,EXP9b_FJ,0,11d49c0f51683b5487aea80a7c16f4dacc921086ac1a3f5418b6e9bc1c7fb7c6,2907.663342,False,keypress,EXP9b_testRsp,465,[],choice-response,Shorter,655e73d1a60ad4b436a1357f,2023-11-22 16:34:02-05:00,tone_Lack,1144,584,PrescreenTrials_tones,PrescreenTrials,11d49,EXP9b,0,1,8
259,1984,6345b7f49677d36bd07c5a10,EXP9b_FJ,0,11d49c0f51683b5487aea80a7c16f4dacc921086ac1a3f5418b6e9bc1c7fb7c6,2907.663342,False,keypress,EXP9b_testRsp,262,[],choice-response,Longer,655e73d1a60ad4b436a1357f,2023-11-22 16:34:02-05:00,tone_Bead,1150,585,PrescreenTrials_tones,PrescreenTrials,11d49,EXP9b,0,0,8
260,1985,6345b7f49677d36bd07c5a10,EXP9b_FJ,0,11d49c0f51683b5487aea80a7c16f4dacc921086ac1a3f5418b6e9bc1c7fb7c6,2907.663342,False,keypress,EXP9b_testRsp,441,[],choice-response,Shorter,655e73d1a60ad4b436a1357f,2023-11-22 16:34:02-05:00,tone_Cap,1154,586,PrescreenTrials_tones,PrescreenTrials,11d49,EXP9b,0,1,8
261,1986,6345b7f49677d36bd07c5a10,EXP9b_FJ,0,11d49c0f51683b5487aea80a7c16f4dacc921086ac1a3f5418b6e9bc1c7fb7c6,2907.663342,False,keypress,EXP9b_testRsp,323,[],choice-response,Longer,655e73d1a60ad4b436a1357f,2023-11-22 16:34:02-05:00,tone_Lab,1160,587,PrescreenTrials_tones,PrescreenTrials,11d49,EXP9b,0,0,8
262,1987,6345b7f49677d36bd07c5a10,EXP9b_FJ,0,11d49c0f51683b5487aea80a7c16f4dacc921086ac1a3f5418b6e9bc1c7fb7c6,2907.663342,False,keypress,EXP9b_testRsp,280,[],choice-response,Longer,655e73d1a60ad4b436a1357f,2023-11-22 16:34:02-05:00,tone_Cab,1106,588,PrescreenTrials_tones,PrescreenTrials,11d49,EXP9b,0,0,8
263,1988,6345b7f49677d36bd07c5a10,EXP9b_FJ,0,11d49c0f51683b5487aea80a7c16f4dacc921086ac1a3f5418b6e9bc1c7fb7c6,2907.663342,False,keypress,EXP9b_testRsp,303,[],choice-response,Shorter,655e73d1a60ad4b436a1357f,2023-11-22 16:34:02-05:00,tone_Back,945,589,PrescreenTrials_tones,PrescreenTrials,11d49,EXP9b,0,1,8
264,1989,6345b7f49677d36bd07c5a10,EXP9b_FJ,0,11d49c0f51683b5487aea80a7c16f4dacc921086ac1a3f5418b6e9bc1c7fb7c6,2907.663342,False,keypress,EXP9b_testRsp,472,[],choice-response,Longer,655e73d1a60ad4b436a1357f,2023-11-22 16:34:02-05:00,tone_Cab,1318,590,PrescreenTrials_tones,PrescreenTrials,11d49,EXP9b,0,0,8
265,1990,6345b7f49677d36bd07c5a10,EXP9b_FJ,0,11d49c0f51683b5487aea80a7c16f4dacc921086ac1a3f5418b6e9bc1c7fb7c6,2907.663342,False,keypress,EXP9b_testRsp,331,[],choice-response,Longer,655e73d1a60ad4b436a1357f,2023-11-22 16:34:02-05:00,tone_Bead,1243,591,PrescreenTrials_tones,PrescreenTrials,11d49,EXP9b,0,0,8
266,1991,6345b7f49677d36bd07c5a10,EXP9b_FJ,0,11d49c0f51683b5487aea80a7c16f4dacc921086ac1a3f5418b6e9bc1c7fb7c6,2907.663342,False,keypress,EXP9b_testRsp,333,[],choice-response,Longer,655e73d1a60ad4b436a1357f,2023-11-22 16:34:02-05:00,tone_Bag,1171,592,PrescreenTrials_tones,PrescreenTrials,11d49,EXP9b,0,0,8
267,1992,6345b7f49677d36bd07c5a10,EXP9b_FJ,0,11d49c0f51683b5487aea80a7c16f4dacc921086ac1a3f5418b6e9bc1c7fb7c6,2907.663342,False,keypress,EXP9b_testRsp,302,[],choice-response,Longer,655e73d1a60ad4b436a1357f,2023-11-22 16:34:02-05:00,tone_Fad,1344,593,PrescreenTrials_tones,PrescreenTrials,11d49,EXP9b,0,0,8
268,1993,6345b7f49677d36bd07c5a10,EXP9b_FJ,0,11d49c0f51683b5487aea80a7c16f4dacc921086ac1a3f5418b6e9bc1c7fb7c6,2907.663342,False,keypress,EXP9b_testRsp,380,[],choice-response,Shorter,655e73d1a60ad4b436a1357f,2023-11-22 16:34:02-05:00,tone_Lap,1050,594,PrescreenTrials_tones,PrescreenTrials,11d49,EXP9b,0,1,8
269,1994,6345b7f49677d36bd07c5a10,EXP9b_FJ,0,11d49c0f51683b5487aea80a7c16f4dacc921086ac1a3f5418b6e9bc1c7fb7c6,2907.663342,False,keypress,EXP9b_testRsp,352,[],choice-response,Longer,655e73d1a60ad4b436a1357f,2023-11-22 16:34:02-05:00,tone_Lab,1196,595,PrescreenTrials_tones,PrescreenTrials,11d49,EXP9b,0,0,8
270,1995,6345b7f49677d36bd07c5a10,EXP9b_FJ,0,11d49c0f51683b5487aea80a7c16f4dacc921086ac1a3f5418b6e9bc1c7fb7c6,2907.663342,False,keypress,EXP9b_testRsp,505,[],choice-response,Shorter,655e73d1a60ad4b436a1357f,2023-11-22 16:34:02-05:00,tone_Lack,1198,596,PrescreenTrials_tones,PrescreenTrials,11d49,EXP9b,0,1,8
271,1996,6345b7f49677d36bd07c5a10,EXP9b_FJ,0,11d49c0f51683b5487aea80a7c16f4dacc921086ac1a3f5418b6e9bc1c7fb7c6,2907.663342,False,keypress,EXP9b_testRsp,355,[],choice-response,Shorter,655e73d1a60ad4b436a1357f,2023-11-22 16:34:02-05:00,tone_Beat,1059,597,PrescreenTrials_tones,PrescreenTrials,11d49,EXP9b,0,1,8
272,1997,6345b7f49677d36bd07c5a10,EXP9b_FJ,0,11d49c0f51683b5487aea80a7c16f4dacc921086ac1a3f5418b6e9bc1c7fb7c6,2907.663342,False,keypress,EXP9b_testRsp,294,[],choice-response,Shorter,655e73d1a60ad4b436a1357f,2023-11-22 16:34:02-05:00,tone_Cap,940,598,PrescreenTrials_tones,PrescreenTrials,11d49,EXP9b,0,1,8
273,1998,6345b7f49677d36bd07c5a10,EXP9b_FJ,0,11d49c0f51683b5487aea80a7c16f4dacc921086ac1a3f5418b6e9bc1c7fb7c6,2907.663342,False,keypress,EXP9b_testRsp,393,[],choice-response,Shorter,655e73d1a60ad4b436a1357f,2023-11-22 16:34:02-05:00,tone_Back,1031,599,PrescreenTrials_tones,PrescreenTrials,11d49,EXP9b,0,1,8
274,1999,6345b7f49677d36bd07c5a10,EXP9b_FJ,0,11d49c0f51683b5487aea80a7c16f4dacc921086ac1a3f5418b6e9bc1c7fb7c6,2907.663342,False,keypress,EXP9b_testRsp,1285,[],choice-response,Longer,655e73d1a60ad4b436a1357f,2023-11-22 16:34:02-05:00,tone_Fat,2117,600,PrescreenTrials_tones,PrescreenTrials,11d49,EXP9b,0,0,8
275,2000,6345b7f49677d36bd07c5a10,EXP9b_FJ,0,11d49c0f51683b5487aea80a7c16f4dacc921086ac1a3f5418b6e9bc1c7fb7c6,2907.663342,False,keypress,EXP9b_testRsp,746,[],choice-response,Longer,655e73d1a60ad4b436a1357f,2023-11-22 16:34:02-05:00,tone_Lag,1625,601,PrescreenTrials_tones,PrescreenTrials,11d49,EXP9b,0,0,8
276,2001,6345b7f49677d36bd07c5a10,EXP9b_FJ,0,11d49c0f51683b5487aea80a7c16f4dacc921086ac1a3f5418b6e9bc1c7fb7c6,2907.663342,False,keypress,EXP9b_testRsp,605,[],choice-response,Shorter,655e73d1a60ad4b436a1357f,2023-11-22 16:34:02-05:00,tone_Back,1229,602,PrescreenTrials_tones,PrescreenTrials,11d49,EXP9b,0,1,8
277,2002,6345b7f49677d36bd07c5a10,EXP9b_FJ,0,11d49c0f51683b5487aea80a7c16f4dacc921086ac1a3f5418b6e9bc1c7fb7c6,2907.663342,False,keypress,EXP9b_testRsp,640,[],choice-response,Shorter,655e73d1a60ad4b436a1357f,2023-11-22 16:34:02-05:00,tone_Cap,1304,603,PrescreenTrials_tones,PrescreenTrials,11d49,EXP9b,0,1,8
278,2003,6345b7f49677d36bd07c5a10,EXP9b_FJ,0,11d49c0f51683b5487aea80a7c16f4dacc921086ac1a3f5418b6e9bc1c7fb7c6,2907.663342,False,keypress,EXP9b_testRsp,297,[],choice-response,Longer,655e73d1a60ad4b436a1357f,2023-11-22 16:34:02-05:00,tone_Bead,1178,604,PrescreenTrials_tones,PrescreenTrials,11d49,EXP9b,0,0,8
279,2004,6345b7f49677d36bd07c5a10,EXP9b_FJ,0,11d49c0f51683b5487aea80a7c16f4dacc921086ac1a3f5418b6e9bc1c7fb7c6,2907.663342,False,keypress,EXP9b_testRsp,873,[],choice-response,Longer,655e73d1a60ad4b436a1357f,2023-11-22 16:34:02-05:00,tone_Fat,1711,605,PrescreenTrials_tones,PrescreenTrials,11d49,EXP9b,0,0,8
280,2005,6345b7f49677d36bd07c5a10,EXP9b_FJ,0,11d49c0f51683b5487aea80a7c16f4dacc921086ac1a3f5418b6e9bc1c7fb7c6,2907.663342,False,keypress,EXP9b_testRsp,729,[],choice-response,Longer,655e73d1a60ad4b436a1357f,2023-11-22 16:34:02-05:00,tone_Lap,1407,606,PrescreenTrials_tones,PrescreenTrials,11d49,EXP9b,0,0,8
281,2006,6345b7f49677d36bd07c5a10,EXP9b_FJ,0,11d49c0f51683b5487aea80a7c16f4dacc921086ac1a3f5418b6e9bc1c7fb7c6,2907.663342,False,keypress,EXP9b_testRsp,470,[],choice-response,Longer,655e73d1a60ad4b436a1357f,2023-11-22 16:34:02-05:00,tone_Lag,1340,607,PrescreenTrials_tones,PrescreenTrials,11d49,EXP9b,0,0,8
282,2007,6345b7f49677d36bd07c5a10,EXP9b_FJ,0,11d49c0f51683b5487aea80a7c16f4dacc921086ac1a3f5418b6e9bc1c7fb7c6,2907.663342,False,keypress,EXP9b_testRsp,110,[],choice-response,Longer,655e73d1a60ad4b436a1357f,2023-11-22 16:34:02-05:00,tone_Fad,1131,608,PrescreenTrials_tones,PrescreenTrials,11d49,EXP9b,0,0,8
283,2008,6345b7f49677d36bd07c5a10,EXP9b_FJ,0,11d49c0f51683b5487aea80a7c16f4dacc921086ac1a3f5418b6e9bc1c7fb7c6,2907.663342,False,keypress,EXP9b_testRsp,390,[],choice-response,Longer,655e73d1a60ad4b436a1357f,2023-11-22 16:34:02-05:00,tone_Lab,1256,609,PrescreenTrials_tones,PrescreenTrials,11d49,EXP9b,0,0,8
284,2009,6345b7f49677d36bd07c5a10,EXP9b_FJ,0,11d49c0f51683b5487aea80a7c16f4dacc921086ac1a3f5418b6e9bc1c7fb7c6,2907.663342,False,keypress,EXP9b_testRsp,283,[],choice-response,Shorter,655e73d1a60ad4b436a1357f,2023-11-22 16:34:02-05:00,tone_Beat,976,610,PrescreenTrials_tones,PrescreenTrials,11d49,EXP9b,0,1,8
285,2010,6345b7f49677d36bd07c5a10,EXP9b_FJ,0,11d49c0f51683b5487aea80a7c16f4dacc921086ac1a3f5418b6e9bc1c7fb7c6,2907.663342,False,keypress,EXP9b_testRsp,316,[],choice-response,Longer,655e73d1a60ad4b436a1357f,2023-11-22 16:34:02-05:00,tone_Cab,1165,611,PrescreenTrials_tones,PrescreenTrials,11d49,EXP9b,0,0,8
286,2011,6345b7f49677d36bd07c5a10,EXP9b_FJ,0,11d49c0f51683b5487aea80a7c16f4dacc921086ac1a3f5418b6e9bc1c7fb7c6,2907.663342,False,keypress,EXP9b_testRsp,683,[],choice-response,Longer,655e73d1a60ad4b436a1357f,2023-11-22 16:34:02-05:00,tone_Bag,1514,612,PrescreenTrials_tones,PrescreenTrials,11d49,EXP9b,0,0,8
287,2012,6345b7f49677d36bd07c5a10,EXP9b_FJ,0,11d49c0f51683b5487aea80a7c16f4dacc921086ac1a3f5418b6e9bc1c7fb7c6,2907.663342,False,keypress,EXP9b_testRsp,792,[],choice-response,Shorter,655e73d1a60ad4b436a1357f,2023-11-22 16:34:02-05:00,tone_Lack,1471,613,PrescreenTrials_tones,PrescreenTrials,11d49,EXP9b,0,1,8
288,2013,6345b7f49677d36bd07c5a10,EXP9b_FJ,0,11d49c0f51683b5487aea80a7c16f4dacc921086ac1a3f5418b6e9bc1c7fb7c6,2907.663342,False,keypress,EXP9b_testRsp,1532,[],choice-response,Shorter,655e73d1a60ad4b436a1357f,2023-11-22 16:34:02-05:00,tone_Lap,2188,614,PrescreenTrials_tones,PrescreenTrials,11d49,EXP9b,0,1,8
289,2014,6345b7f49677d36bd07c5a10,EXP9b_FJ,0,11d49c0f51683b5487aea80a7c16f4dacc921086ac1a3f5418b6e9bc1c7fb7c6,2907.663342,False,keypress,EXP9b_testRsp,329,[],choice-response,Longer,655e73d1a60ad4b436a1357f,2023-11-22 16:34:02-05:00,tone_Bag,1151,615,PrescreenTrials_tones,PrescreenTrials,11d49,EXP9b,0,0,8
290,2015,6345b7f49677d36bd07c5a10,EXP9b_FJ,0,11d49c0f51683b5487aea80a7c16f4dacc921086ac1a3f5418b6e9bc1c7fb7c6,2907.663342,False,keypress,EXP9b_testRsp,458,[],choice-response,Shorter,655e73d1a60ad4b436a1357f,2023-11-22 16:34:02-05:00,tone_Cap,1118,616,PrescreenTrials_tones,PrescreenTrials,11d49,EXP9b,0,1,8
291,2016,6345b7f49677d36bd07c5a10,EXP9b_FJ,0,11d49c0f51683b5487aea80a7c16f4dacc921086ac1a3f5418b6e9bc1c7fb7c6,2907.663342,False,keypress,EXP9b_testRsp,367,[],choice-response,Longer,655e73d1a60ad4b436a1357f,2023-11-22 16:34:02-05:00,tone_Fad,1409,617,PrescreenTrials_tones,PrescreenTrials,11d49,EXP9b,0,0,8
292,2017,6345b7f49677d36bd07c5a10,EXP9b_FJ,0,11d49c0f51683b5487aea80a7c16f4dacc921086ac1a3f5418b6e9bc1c7fb7c6,2907.663342,False,keypress,EXP9b_testRsp,335,[],choice-response,Longer,655e73d1a60ad4b436a1357f,2023-11-22 16:34:02-05:00,tone_Bead,1238,618,PrescreenTrials_tones,PrescreenTrials,11d49,EXP9b,0,0,8
293,2018,6345b7f49677d36bd07c5a10,EXP9b_FJ,0,11d49c0f51683b5487aea80a7c16f4dacc921086ac1a3f5418b6e9bc1c7fb7c6,2907.663342,False,keypress,EXP9b_testRsp,296,[],choice-response,Shorter,655e73d1a60ad4b436a1357f,2023-11-22 16:34:02-05:00,tone_Beat,993,619,PrescreenTrials_tones,PrescreenTrials,11d49,EXP9b,0,1,8
294,2019,6345b7f49677d36bd07c5a10,EXP9b_FJ,0,11d49c0f51683b5487aea80a7c16f4dacc921086ac1a3f5418b6e9bc1c7fb7c6,2907.663342,False,keypress,EXP9b_testRsp,283,[],choice-response,Longer,655e73d1a60ad4b436a1357f,2023-11-22 16:34:02-05:00,tone_Cab,1154,620,PrescreenTrials_tones,PrescreenTrials,11d49,EXP9b,0,0,8
295,2020,6345b7f49677d36bd07c5a10,EXP9b_FJ,0,11d49c0f51683b5487aea80a7c16f4dacc921086ac1a3f5418b6e9bc1c7fb7c6,2907.663342,False,keypress,EXP9b_testRsp,213,[],choice-response,Longer,655e73d1a60ad4b436a1357f,2023-11-22 16:34:02-05:00,tone_Lag,1078,621,PrescreenTrials_tones,PrescreenTrials,11d49,EXP9b,0,0,8
296,2021,6345b7f49677d36bd07c5a10,EXP9b_FJ,0,11d49c0f51683b5487aea80a7c16f4dacc921086ac1a3f5418b6e9bc1c7fb7c6,2907.663342,False,keypress,EXP9b_testRsp,280,[],choice-response,Shorter,655e73d1a60ad4b436a1357f,2023-11-22 16:34:02-05:00,tone_Back,926,622,PrescreenTrials_tones,PrescreenTrials,11d49,EXP9b,0,1,8
297,2022,6345b7f49677d36bd07c5a10,EXP9b_FJ,0,11d49c0f51683b5487aea80a7c16f4dacc921086ac1a3f5418b6e9bc1c7fb7c6,2907.663342,False,keypress,EXP9b_testRsp,311,[],choice-response,Longer,655e73d1a60ad4b436a1357f,2023-11-22 16:34:02-05:00,tone_Lab,1165,623,PrescreenTrials_tones,PrescreenTrials,11d49,EXP9b,0,0,8
298,2023,6345b7f49677d36bd07c5a10,EXP9b_FJ,0,11d49c0f51683b5487aea80a7c16f4dacc921086ac1a3f5418b6e9bc1c7fb7c6,2907.663342,False,keypress,EXP9b_testRsp,351,[],choice-response,Shorter,655e73d1a60ad4b436a1357f,2023-11-22 16:34:02-05:00,tone_Lack,1026,624,PrescreenTrials_tones,PrescreenTrials,11d49,EXP9b,0,1,8
299,2024,6345b7f49677d36bd07c5a10,EXP9b_FJ,0,11d49c0f51683b5487aea80a7c16f4dacc921086ac1a3f5418b6e9bc1c7fb7c6,2907.663342,False,keypress,EXP9b_testRsp,199,[],choice-response,Longer,655e73d1a60ad4b436a1357f,2023-11-22 16:34:02-05:00,tone_Fat,1040,625,PrescreenTrials_tones,PrescreenTrials,11d49,EXP9b,0,0,8
300,2025,6345b7f49677d36bd07c5a10,EXP9b_FJ,0,11d49c0f51683b5487aea80a7c16f4dacc921086ac1a3f5418b6e9bc1c7fb7c6,2907.663342,False,keypress,EXP9b_testRsp,281,[],choice-response,Longer,655e73d1a60ad4b436a1357f,2023-11-22 16:34:02-05:00,tone_Lap,965,626,PrescreenTrials_tones,PrescreenTrials,11d49,EXP9b,0,0,8
301,2026,6345b7f49677d36bd07c5a10,EXP9b_FJ,0,11d49c0f51683b5487aea80a7c16f4dacc921086ac1a3f5418b6e9bc1c7fb7c6,2907.663342,False,keypress,EXP9b_testRsp,245,[],choice-response,Shorter,655e73d1a60ad4b436a1357f,2023-11-22 16:34:02-05:00,tone_Cab,1082,627,PrescreenTrials_tones,PrescreenTrials,11d49,EXP9b,0,1,8
302,2027,6345b7f49677d36bd07c5a10,EXP9b_FJ,0,11d49c0f51683b5487aea80a7c16f4dacc921086ac1a3f5418b6e9bc1c7fb7c6,2907.663342,False,keypress,EXP9b_testRsp,492,[],choice-response,Longer,655e73d1a60ad4b436a1357f,2023-11-22 16:34:02-05:00,tone_Fat,1323,628,PrescreenTrials_tones,PrescreenTrials,11d49,EXP9b,0,0,8
303,2028,6345b7f49677d36bd07c5a10,EXP9b_FJ,0,11d49c0f51683b5487aea80a7c16f4dacc921086ac1a3f5418b6e9bc1c7fb7c6,2907.663342,False,keypress,EXP9b_testRsp,2313,[],choice-response,Longer,655e73d1a60ad4b436a1357f,2023-11-22 16:34:02-05:00,tone_Bag,3163,629,PrescreenTrials_tones,PrescreenTrials,11d49,EXP9b,0,0,8
304,2029,6345b7f49677d36bd07c5a10,EXP9b_FJ,0,11d49c0f51683b5487aea80a7c16f4dacc921086ac1a3f5418b6e9bc1c7fb7c6,2907.663342,False,keypress,EXP9b_testRsp,351,[],choice-response,Longer,655e73d1a60ad4b436a1357f,2023-11-22 16:34:02-05:00,tone_Lab,1227,630,PrescreenTrials_tones,PrescreenTrials,11d49,EXP9b,0,0,8
305,2030,6345b7f49677d36bd07c5a10,EXP9b_FJ,0,11d49c0f51683b5487aea80a7c16f4dacc921086ac1a3f5418b6e9bc1c7fb7c6,2907.663342,False,keypress,EXP9b_testRsp,470,[],choice-response,Shorter,655e73d1a60ad4b436a1357f,2023-11-22 16:34:02-05:00,tone_Cap,1122,631,PrescreenTrials_tones,PrescreenTrials,11d49,EXP9b,0,1,8
306,2031,6345b7f49677d36bd07c5a10,EXP9b_FJ,0,11d49c0f51683b5487aea80a7c16f4dacc921086ac1a3f5418b6e9bc1c7fb7c6,2907.663342,False,keypress,EXP9b_testRsp,272,[],choice-response,Longer,655e73d1a60ad4b436a1357f,2023-11-22 16:34:02-05:00,tone_Lag,1152,632,PrescreenTrials_tones,PrescreenTrials,11d49,EXP9b,0,0,8
307,2032,6345b7f49677d36bd07c5a10,EXP9b_FJ,0,11d49c0f51683b5487aea80a7c16f4dacc921086ac1a3f5418b6e9bc1c7fb7c6,2907.663342,False,keypress,EXP9b_testRsp,633,[],choice-response,Shorter,655e73d1a60ad4b436a1357f,2023-11-22 16:34:02-05:00,tone_Lack,1294,633,PrescreenTrials_tones,PrescreenTrials,11d49,EXP9b,0,1,8
308,2033,6345b7f49677d36bd07c5a10,EXP9b_FJ,0,11d49c0f51683b5487aea80a7c16f4dacc921086ac1a3f5418b6e9bc1c7fb7c6,2907.663342,False,keypress,EXP9b_testRsp,199,[],choice-response,Longer,655e73d1a60ad4b436a1357f,2023-11-22 16:34:02-05:00,tone_Bead,1079,634,PrescreenTrials_tones,PrescreenTrials,11d49,EXP9b,0,0,8
309,2034,6345b7f49677d36bd07c5a10,EXP9b_FJ,0,11d49c0f51683b5487aea80a7c16f4dacc921086ac1a3f5418b6e9bc1c7fb7c6,2907.663342,False,keypress,EXP9b_testRsp,351,[],choice-response,Shorter,655e73d1a60ad4b436a1357f,2023-11-22 16:34:02-05:00,tone_Back,995,635,PrescreenTrials_tones,PrescreenTrials,11d49,EXP9b,0,1,8
310,2035,6345b7f49677d36bd07c5a10,EXP9b_FJ,0,11d49c0f51683b5487aea80a7c16f4dacc921086ac1a3f5418b6e9bc1c7fb7c6,2907.663342,False,keypress,EXP9b_testRsp,36,[],choice-response,Longer,655e73d1a60ad4b436a1357f,2023-11-22 16:34:02-05:00,tone_Fad,1080,636,PrescreenTrials_tones,PrescreenTrials,11d49,EXP9b,0,0,8
311,2036,6345b7f49677d36bd07c5a10,EXP9b_FJ,0,11d49c0f51683b5487aea80a7c16f4dacc921086ac1a3f5418b6e9bc1c7fb7c6,2907.663342,False,keypress,EXP9b_testRsp,206,[],choice-response,Shorter,655e73d1a60ad4b436a1357f,2023-11-22 16:34:02-05:00,tone_Beat,887,637,PrescreenTrials_tones,PrescreenTrials,11d49,EXP9b,0,1,8
312,2037,6345b7f49677d36bd07c5a10,EXP9b_FJ,0,11d49c0f51683b5487aea80a7c16f4dacc921086ac1a3f5418b6e9bc1c7fb7c6,2907.663342,False,keypress,EXP9b_testRsp,565,[],choice-response,Longer,655e73d1a60ad4b436a1357f,2023-11-22 16:34:02-05:00,tone_Lag,1436,638,PrescreenTrials_tones,PrescreenTrials,11d49,EXP9b,0,0,8
313,2038,6345b7f49677d36bd07c5a10,EXP9b_FJ,0,11d49c0f51683b5487aea80a7c16f4dacc921086ac1a3f5418b6e9bc1c7fb7c6,2907.663342,False,keypress,EXP9b_testRsp,428,[],choice-response,Shorter,655e73d1a60ad4b436a1357f,2023-11-22 16:34:02-05:00,tone_Back,1074,639,PrescreenTrials_tones,PrescreenTrials,11d49,EXP9b,0,1,8
314,2039,6345b7f49677d36bd07c5a10,EXP9b_FJ,0,11d49c0f51683b5487aea80a7c16f4dacc921086ac1a3f5418b6e9bc1c7fb7c6,2907.663342,False,keypress,EXP9b_testRsp,439,[],choice-response,Shorter,655e73d1a60ad4b436a1357f,2023-11-22 16:34:02-05:00,tone_Beat,1140,640,PrescreenTrials_tones,PrescreenTrials,11d49,EXP9b,0,1,8
315,2040,6345b7f49677d36bd07c5a10,EXP9b_FJ,0,11d49c0f51683b5487aea80a7c16f4dacc921086ac1a3f5418b6e9bc1c7fb7c6,2907.663342,False,keypress,EXP9b_testRsp,264,[],choice-response,Longer,655e73d1a60ad4b436a1357f,2023-11-22 16:34:02-05:00,tone_Lab,1092,641,PrescreenTrials_tones,PrescreenTrials,11d49,EXP9b,0,0,8
316,2041,6345b7f49677d36bd07c5a10,EXP9b_FJ,0,11d49c0f51683b5487aea80a7c16f4dacc921086ac1a3f5418b6e9bc1c7fb7c6,2907.663342,False,keypress,EXP9b_testRsp,583,[],choice-response,Shorter,655e73d1a60ad4b436a1357f,2023-11-22 16:34:02-05:00,tone_Lap,1255,642,PrescreenTrials_tones,PrescreenTrials,11d49,EXP9b,0,1,8
317,2042,6345b7f49677d36bd07c5a10,EXP9b_FJ,0,11d49c0f51683b5487aea80a7c16f4dacc921086ac1a3f5418b6e9bc1c7fb7c6,2907.663342,False,keypress,EXP9b_testRsp,191,[],choice-response,Longer,655e73d1a60ad4b436a1357f,2023-11-22 16:34:02-05:00,tone_Fad,1225,643,PrescreenTrials_tones,PrescreenTrials,11d49,EXP9b,0,0,8
318,2043,6345b7f49677d36bd07c5a10,EXP9b_FJ,0,11d49c0f51683b5487aea80a7c16f4dacc921086ac1a3f5418b6e9bc1c7fb7c6,2907.663342,False,keypress,EXP9b_testRsp,312,[],choice-response,Longer,655e73d1a60ad4b436a1357f,2023-11-22 16:34:02-05:00,tone_Bag,1159,644,PrescreenTrials_tones,PrescreenTrials,11d49,EXP9b,0,0,8
319,2044,6345b7f49677d36bd07c5a10,EXP9b_FJ,0,11d49c0f51683b5487aea80a7c16f4dacc921086ac1a3f5418b6e9bc1c7fb7c6,2907.663342,False,keypress,EXP9b_testRsp,98,[],choice-response,Longer,655e73d1a60ad4b436a1357f,2023-11-22 16:34:02-05:00,tone_Bead,976,645,PrescreenTrials_tones,PrescreenTrials,11d49,EXP9b,0,0,8
320,2045,6345b7f49677d36bd07c5a10,EXP9b_FJ,0,11d49c0f51683b5487aea80a7c16f4dacc921086ac1a3f5418b6e9bc1c7fb7c6,2907.663342,False,keypress,EXP9b_testRsp,295,[],choice-response,Longer,655e73d1a60ad4b436a1357f,2023-11-22 16:34:02-05:00,tone_Cab,1156,646,PrescreenTrials_tones,PrescreenTrials,11d49,EXP9b,0,0,8
