,index,expt_id,group_id,network_error_repeat,participant_id,participation_duration,response_correct,response_mode,response_name,response_rt,response_target,response_type,response_value,session_id,session_start_time,stimuli_presented,trial_duration,trial_num,trial_template,task,sub_id,exp,Correct,Shorter,Length
0,565,6345b7f49677d36bd07c5a10,EXP9a_JF,0,7d2de33f1c0e1235bff983d6b029de949199fc2bb2d69cf5074583daa421524c,2104.145861,False,keypress,prescreenRsp_beadbeat_rv,3499,[],choice-response,Bead,655e73d1a60ad4b436a1357f,2023-11-22 16:34:02-05:00,Beat,5210,566,EXP9a_PrescreenTrials_rv,PrescreenTrials,7d2de,EXP9a,0,0,1
1,566,6345b7f49677d36bd07c5a10,EXP9a_JF,0,7d2de33f1c0e1235bff983d6b029de949199fc2bb2d69cf5074583daa421524c,2104.145861,False,keypress,prescreenRsp_lablap_rv,1851,[],choice-response,Lap,655e73d1a60ad4b436a1357f,2023-11-22 16:34:02-05:00,Lap,2803,567,EXP9a_PrescreenTrials_rv,PrescreenTrials,7d2de,EXP9a,1,1,1
2,567,6345b7f49677d36bd07c5a10,EXP9a_JF,0,7d2de33f1c0e1235bff983d6b029de949199fc2bb2d69cf5074583daa421524c,2104.145861,False,keypress,prescreenRsp_lablap_rv,500,[],choice-response,Lab,655e73d1a60ad4b436a1357f,2023-11-22 16:34:02-05:00,Lab,2014,568,EXP9a_PrescreenTrials_rv,PrescreenTrials,7d2de,EXP9a,1,0,8
3,568,6345b7f49677d36bd07c5a10,EXP9a_JF,0,7d2de33f1c0e1235bff983d6b029de949199fc2bb2d69cf5074583daa421524c,2104.145861,False,keypress,prescreenRsp_beadbeat_rv,717,[],choice-response,Bead,655e73d1a60ad4b436a1357f,2023-11-22 16:34:02-05:00,Bead,1823,569,EXP9a_PrescreenTrials_rv,PrescreenTrials,7d2de,EXP9a,1,0,8
4,569,6345b7f49677d36bd07c5a10,EXP9a_JF,0,7d2de33f1c0e1235bff983d6b029de949199fc2bb2d69cf5074583daa421524c,2104.145861,False,keypress,prescreenRsp_cabcap_rv,1060,[],choice-response,Cap,655e73d1a60ad4b436a1357f,2023-11-22 16:34:02-05:00,Cap,2004,570,EXP9a_PrescreenTrials_rv,PrescreenTrials,7d2de,EXP9a,1,1,1
5,570,6345b7f49677d36bd07c5a10,EXP9a_JF,0,7d2de33f1c0e1235bff983d6b029de949199fc2bb2d69cf5074583daa421524c,2104.145861,False,keypress,prescreenRsp_fadfat_rv,713,[],choice-response,Fad,655e73d1a60ad4b436a1357f,2023-11-22 16:34:02-05:00,Fad,2265,571,EXP9a_PrescreenTrials_rv,PrescreenTrials,7d2de,EXP9a,1,0,8
6,571,6345b7f49677d36bd07c5a10,EXP9a_JF,0,7d2de33f1c0e1235bff983d6b029de949199fc2bb2d69cf5074583daa421524c,2104.145861,False,keypress,prescreenRsp_bagback_rv,780,[],choice-response,Bag,655e73d1a60ad4b436a1357f,2023-11-22 16:34:02-05:00,Bag,1839,572,EXP9a_PrescreenTrials_rv,PrescreenTrials,7d2de,EXP9a,1,0,8
7,572,6345b7f49677d36bd07c5a10,EXP9a_JF,0,7d2de33f1c0e1235bff983d6b029de949199fc2bb2d69cf5074583daa421524c,2104.145861,False,keypress,prescreenRsp_cabcap_rv,596,[],choice-response,Cab,655e73d1a60ad4b436a1357f,2023-11-22 16:34:02-05:00,Cab,1698,573,EXP9a_PrescreenTrials_rv,PrescreenTrials,7d2de,EXP9a,1,0,8
8,573,6345b7f49677d36bd07c5a10,EXP9a_JF,0,7d2de33f1c0e1235bff983d6b029de949199fc2bb2d69cf5074583daa421524c,2104.145861,False,keypress,prescreenRsp_laglack_rv,1303,[],choice-response,Lack,655e73d1a60ad4b436a1357f,2023-11-22 16:34:02-05:00,Lack,2191,574,EXP9a_PrescreenTrials_rv,PrescreenTrials,7d2de,EXP9a,1,1,1
9,574,6345b7f49677d36bd07c5a10,EXP9a_JF,0,7d2de33f1c0e1235bff983d6b029de949199fc2bb2d69cf5074583daa421524c,2104.145861,False,keypress,prescreenRsp_bagback_rv,732,[],choice-response,Back,655e73d1a60ad4b436a1357f,2023-11-22 16:34:02-05:00,Back,1855,575,EXP9a_PrescreenTrials_rv,PrescreenTrials,7d2de,EXP9a,1,1,1
10,575,6345b7f49677d36bd07c5a10,EXP9a_JF,0,7d2de33f1c0e1235bff983d6b029de949199fc2bb2d69cf5074583daa421524c,2104.145861,False,keypress,prescreenRsp_laglack_rv,1241,[],choice-response,Lack,655e73d1a60ad4b436a1357f,2023-11-22 16:34:02-05:00,Lag,2337,576,EXP9a_PrescreenTrials_rv,PrescreenTrials,7d2de,EXP9a,0,1,8
11,576,6345b7f49677d36bd07c5a10,EXP9a_JF,0,7d2de33f1c0e1235bff983d6b029de949199fc2bb2d69cf5074583daa421524c,2104.145861,False,keypress,prescreenRsp_fadfat_rv,861,[],choice-response,Fad,655e73d1a60ad4b436a1357f,2023-11-22 16:34:02-05:00,Fat,1954,577,EXP9a_PrescreenTrials_rv,PrescreenTrials,7d2de,EXP9a,0,0,1
12,577,6345b7f49677d36bd07c5a10,EXP9a_JF,0,7d2de33f1c0e1235bff983d6b029de949199fc2bb2d69cf5074583daa421524c,2104.145861,False,keypress,prescreenRsp_lablap_rv,631,[],choice-response,Lab,655e73d1a60ad4b436a1357f,2023-11-22 16:34:02-05:00,Lab,1477,578,EXP9a_PrescreenTrials_rv,PrescreenTrials,7d2de,EXP9a,1,0,8
13,578,6345b7f49677d36bd07c5a10,EXP9a_JF,0,7d2de33f1c0e1235bff983d6b029de949199fc2bb2d69cf5074583daa421524c,2104.145861,False,keypress,prescreenRsp_fadfat_rv,492,[],choice-response,Fad,655e73d1a60ad4b436a1357f,2023-11-22 16:34:02-05:00,Fad,1501,579,EXP9a_PrescreenTrials_rv,PrescreenTrials,7d2de,EXP9a,1,0,8
14,579,6345b7f49677d36bd07c5a10,EXP9a_JF,0,7d2de33f1c0e1235bff983d6b029de949199fc2bb2d69cf5074583daa421524c,2104.145861,False,keypress,prescreenRsp_bagback_rv,640,[],choice-response,Back,655e73d1a60ad4b436a1357f,2023-11-22 16:34:02-05:00,Back,1252,580,EXP9a_PrescreenTrials_rv,PrescreenTrials,7d2de,EXP9a,1,1,1
15,580,6345b7f49677d36bd07c5a10,EXP9a_JF,0,7d2de33f1c0e1235bff983d6b029de949199fc2bb2d69cf5074583daa421524c,2104.145861,False,keypress,prescreenRsp_beadbeat_rv,673,[],choice-response,Bead,655e73d1a60ad4b436a1357f,2023-11-22 16:34:02-05:00,Bead,1552,581,EXP9a_PrescreenTrials_rv,PrescreenTrials,7d2de,EXP9a,1,0,8
16,581,6345b7f49677d36bd07c5a10,EXP9a_JF,0,7d2de33f1c0e1235bff983d6b029de949199fc2bb2d69cf5074583daa421524c,2104.145861,False,keypress,prescreenRsp_fadfat_rv,540,[],choice-response,Fad,655e73d1a60ad4b436a1357f,2023-11-22 16:34:02-05:00,Fat,1368,582,EXP9a_PrescreenTrials_rv,PrescreenTrials,7d2de,EXP9a,0,0,1
17,582,6345b7f49677d36bd07c5a10,EXP9a_JF,0,7d2de33f1c0e1235bff983d6b029de949199fc2bb2d69cf5074583daa421524c,2104.145861,False,keypress,prescreenRsp_laglack_rv,605,[],choice-response,Lack,655e73d1a60ad4b436a1357f,2023-11-22 16:34:02-05:00,Lag,1456,583,EXP9a_PrescreenTrials_rv,PrescreenTrials,7d2de,EXP9a,0,1,8
18,583,6345b7f49677d36bd07c5a10,EXP9a_JF,0,7d2de33f1c0e1235bff983d6b029de949199fc2bb2d69cf5074583daa421524c,2104.145861,False,keypress,prescreenRsp_lablap_rv,1961,[],choice-response,Lap,655e73d1a60ad4b436a1357f,2023-11-22 16:34:02-05:00,Lap,2606,584,EXP9a_PrescreenTrials_rv,PrescreenTrials,7d2de,EXP9a,1,1,1
19,584,6345b7f49677d36bd07c5a10,EXP9a_JF,0,7d2de33f1c0e1235bff983d6b029de949199fc2bb2d69cf5074583daa421524c,2104.145861,False,keypress,prescreenRsp_cabcap_rv,544,[],choice-response,Cab,655e73d1a60ad4b436a1357f,2023-11-22 16:34:02-05:00,Cab,1368,585,EXP9a_PrescreenTrials_rv,PrescreenTrials,7d2de,EXP9a,1,0,8
20,585,6345b7f49677d36bd07c5a10,EXP9a_JF,0,7d2de33f1c0e1235bff983d6b029de949199fc2bb2d69cf5074583daa421524c,2104.145861,False,keypress,prescreenRsp_cabcap_rv,606,[],choice-response,Cap,655e73d1a60ad4b436a1357f,2023-11-22 16:34:02-05:00,Cap,1243,586,EXP9a_PrescreenTrials_rv,PrescreenTrials,7d2de,EXP9a,1,1,1
21,586,6345b7f49677d36bd07c5a10,EXP9a_JF,0,7d2de33f1c0e1235bff983d6b029de949199fc2bb2d69cf5074583daa421524c,2104.145861,False,keypress,prescreenRsp_beadbeat_rv,1351,[],choice-response,Beat,655e73d1a60ad4b436a1357f,2023-11-22 16:34:02-05:00,Beat,2043,587,EXP9a_PrescreenTrials_rv,PrescreenTrials,7d2de,EXP9a,1,1,1
22,587,6345b7f49677d36bd07c5a10,EXP9a_JF,0,7d2de33f1c0e1235bff983d6b029de949199fc2bb2d69cf5074583daa421524c,2104.145861,False,keypress,prescreenRsp_bagback_rv,447,[],choice-response,Bag,655e73d1a60ad4b436a1357f,2023-11-22 16:34:02-05:00,Bag,1248,588,EXP9a_PrescreenTrials_rv,PrescreenTrials,7d2de,EXP9a,1,0,8
23,588,6345b7f49677d36bd07c5a10,EXP9a_JF,0,7d2de33f1c0e1235bff983d6b029de949199fc2bb2d69cf5074583daa421524c,2104.145861,False,keypress,prescreenRsp_laglack_rv,1039,[],choice-response,Lack,655e73d1a60ad4b436a1357f,2023-11-22 16:34:02-05:00,Lack,1706,589,EXP9a_PrescreenTrials_rv,PrescreenTrials,7d2de,EXP9a,1,1,1
24,589,6345b7f49677d36bd07c5a10,EXP9a_JF,0,7d2de33f1c0e1235bff983d6b029de949199fc2bb2d69cf5074583daa421524c,2104.145861,False,keypress,prescreenRsp_fadfat_rv,373,[],choice-response,Fad,655e73d1a60ad4b436a1357f,2023-11-22 16:34:02-05:00,Fad,1384,590,EXP9a_PrescreenTrials_rv,PrescreenTrials,7d2de,EXP9a,1,0,8
25,590,6345b7f49677d36bd07c5a10,EXP9a_JF,0,7d2de33f1c0e1235bff983d6b029de949199fc2bb2d69cf5074583daa421524c,2104.145861,False,keypress,prescreenRsp_cabcap_rv,507,[],choice-response,Cab,655e73d1a60ad4b436a1357f,2023-11-22 16:34:02-05:00,Cab,1339,591,EXP9a_PrescreenTrials_rv,PrescreenTrials,7d2de,EXP9a,1,0,8
26,591,6345b7f49677d36bd07c5a10,EXP9a_JF,0,7d2de33f1c0e1235bff983d6b029de949199fc2bb2d69cf5074583daa421524c,2104.145861,False,keypress,prescreenRsp_bagback_rv,626,[],choice-response,Back,655e73d1a60ad4b436a1357f,2023-11-22 16:34:02-05:00,Back,1246,592,EXP9a_PrescreenTrials_rv,PrescreenTrials,7d2de,EXP9a,1,1,1
27,592,6345b7f49677d36bd07c5a10,EXP9a_JF,0,7d2de33f1c0e1235bff983d6b029de949199fc2bb2d69cf5074583daa421524c,2104.145861,False,keypress,prescreenRsp_beadbeat_rv,374,[],choice-response,Bead,655e73d1a60ad4b436a1357f,2023-11-22 16:34:02-05:00,Bead,1248,593,EXP9a_PrescreenTrials_rv,PrescreenTrials,7d2de,EXP9a,1,0,8
28,593,6345b7f49677d36bd07c5a10,EXP9a_JF,0,7d2de33f1c0e1235bff983d6b029de949199fc2bb2d69cf5074583daa421524c,2104.145861,False,keypress,prescreenRsp_laglack_rv,607,[],choice-response,Lack,655e73d1a60ad4b436a1357f,2023-11-22 16:34:02-05:00,Lag,1458,594,EXP9a_PrescreenTrials_rv,PrescreenTrials,7d2de,EXP9a,0,1,8
29,594,6345b7f49677d36bd07c5a10,EXP9a_JF,0,7d2de33f1c0e1235bff983d6b029de949199fc2bb2d69cf5074583daa421524c,2104.145861,False,keypress,prescreenRsp_beadbeat_rv,786,[],choice-response,Beat,655e73d1a60ad4b436a1357f,2023-11-22 16:34:02-05:00,Beat,1474,595,EXP9a_PrescreenTrials_rv,PrescreenTrials,7d2de,EXP9a,1,1,1
30,595,6345b7f49677d36bd07c5a10,EXP9a_JF,0,7d2de33f1c0e1235bff983d6b029de949199fc2bb2d69cf5074583daa421524c,2104.145861,False,keypress,prescreenRsp_cabcap_rv,831,[],choice-response,Cap,655e73d1a60ad4b436a1357f,2023-11-22 16:34:02-05:00,Cap,1495,596,EXP9a_PrescreenTrials_rv,PrescreenTrials,7d2de,EXP9a,1,1,1
31,596,6345b7f49677d36bd07c5a10,EXP9a_JF,0,7d2de33f1c0e1235bff983d6b029de949199fc2bb2d69cf5074583daa421524c,2104.145861,False,keypress,prescreenRsp_lablap_rv,597,[],choice-response,Lab,655e73d1a60ad4b436a1357f,2023-11-22 16:34:02-05:00,Lab,1452,597,EXP9a_PrescreenTrials_rv,PrescreenTrials,7d2de,EXP9a,1,0,8
32,597,6345b7f49677d36bd07c5a10,EXP9a_JF,0,7d2de33f1c0e1235bff983d6b029de949199fc2bb2d69cf5074583daa421524c,2104.145861,False,keypress,prescreenRsp_lablap_rv,414,[],choice-response,Lap,655e73d1a60ad4b436a1357f,2023-11-22 16:34:02-05:00,Lap,1059,598,EXP9a_PrescreenTrials_rv,PrescreenTrials,7d2de,EXP9a,1,1,1
33,598,6345b7f49677d36bd07c5a10,EXP9a_JF,0,7d2de33f1c0e1235bff983d6b029de949199fc2bb2d69cf5074583daa421524c,2104.145861,False,keypress,prescreenRsp_laglack_rv,652,[],choice-response,Lack,655e73d1a60ad4b436a1357f,2023-11-22 16:34:02-05:00,Lack,1321,599,EXP9a_PrescreenTrials_rv,PrescreenTrials,7d2de,EXP9a,1,1,1
34,599,6345b7f49677d36bd07c5a10,EXP9a_JF,0,7d2de33f1c0e1235bff983d6b029de949199fc2bb2d69cf5074583daa421524c,2104.145861,False,keypress,prescreenRsp_bagback_rv,438,[],choice-response,Bag,655e73d1a60ad4b436a1357f,2023-11-22 16:34:02-05:00,Bag,1237,600,EXP9a_PrescreenTrials_rv,PrescreenTrials,7d2de,EXP9a,1,0,8
35,600,6345b7f49677d36bd07c5a10,EXP9a_JF,0,7d2de33f1c0e1235bff983d6b029de949199fc2bb2d69cf5074583daa421524c,2104.145861,False,keypress,prescreenRsp_fadfat_rv,774,[],choice-response,Fad,655e73d1a60ad4b436a1357f,2023-11-22 16:34:02-05:00,Fat,1603,601,EXP9a_PrescreenTrials_rv,PrescreenTrials,7d2de,EXP9a,0,0,1
36,601,6345b7f49677d36bd07c5a10,EXP9a_JF,0,7d2de33f1c0e1235bff983d6b029de949199fc2bb2d69cf5074583daa421524c,2104.145861,False,keypress,prescreenRsp_cabcap_rv,753,[],choice-response,Cap,655e73d1a60ad4b436a1357f,2023-11-22 16:34:02-05:00,Cap,1393,602,EXP9a_PrescreenTrials_rv,PrescreenTrials,7d2de,EXP9a,1,1,1
37,602,6345b7f49677d36bd07c5a10,EXP9a_JF,0,7d2de33f1c0e1235bff983d6b029de949199fc2bb2d69cf5074583daa421524c,2104.145861,False,keypress,prescreenRsp_bagback_rv,396,[],choice-response,Bag,655e73d1a60ad4b436a1357f,2023-11-22 16:34:02-05:00,Bag,1197,603,EXP9a_PrescreenTrials_rv,PrescreenTrials,7d2de,EXP9a,1,0,8
38,603,6345b7f49677d36bd07c5a10,EXP9a_JF,0,7d2de33f1c0e1235bff983d6b029de949199fc2bb2d69cf5074583daa421524c,2104.145861,False,keypress,prescreenRsp_cabcap_rv,427,[],choice-response,Cab,655e73d1a60ad4b436a1357f,2023-11-22 16:34:02-05:00,Cab,1255,604,EXP9a_PrescreenTrials_rv,PrescreenTrials,7d2de,EXP9a,1,0,8
39,604,6345b7f49677d36bd07c5a10,EXP9a_JF,0,7d2de33f1c0e1235bff983d6b029de949199fc2bb2d69cf5074583daa421524c,2104.145861,False,keypress,prescreenRsp_laglack_rv,450,[],choice-response,Lack,655e73d1a60ad4b436a1357f,2023-11-22 16:34:02-05:00,Lack,1109,605,EXP9a_PrescreenTrials_rv,PrescreenTrials,7d2de,EXP9a,1,1,1
40,605,6345b7f49677d36bd07c5a10,EXP9a_JF,0,7d2de33f1c0e1235bff983d6b029de949199fc2bb2d69cf5074583daa421524c,2104.145861,False,keypress,prescreenRsp_lablap_rv,640,[],choice-response,Lap,655e73d1a60ad4b436a1357f,2023-11-22 16:34:02-05:00,Lap,1277,606,EXP9a_PrescreenTrials_rv,PrescreenTrials,7d2de,EXP9a,1,1,1
41,606,6345b7f49677d36bd07c5a10,EXP9a_JF,0,7d2de33f1c0e1235bff983d6b029de949199fc2bb2d69cf5074583daa421524c,2104.145861,False,keypress,prescreenRsp_fadfat_rv,486,[],choice-response,Fad,655e73d1a60ad4b436a1357f,2023-11-22 16:34:02-05:00,Fad,1498,607,EXP9a_PrescreenTrials_rv,PrescreenTrials,7d2de,EXP9a,1,0,8
42,607,6345b7f49677d36bd07c5a10,EXP9a_JF,0,7d2de33f1c0e1235bff983d6b029de949199fc2bb2d69cf5074583daa421524c,2104.145861,False,keypress,prescreenRsp_beadbeat_rv,385,[],choice-response,Bead,655e73d1a60ad4b436a1357f,2023-11-22 16:34:02-05:00,Bead,1259,608,EXP9a_PrescreenTrials_rv,PrescreenTrials,7d2de,EXP9a,1,0,8
43,608,6345b7f49677d36bd07c5a10,EXP9a_JF,0,7d2de33f1c0e1235bff983d6b029de949199fc2bb2d69cf5074583daa421524c,2104.145861,False,keypress,prescreenRsp_lablap_rv,957,[],choice-response,Lab,655e73d1a60ad4b436a1357f,2023-11-22 16:34:02-05:00,Lab,1810,609,EXP9a_PrescreenTrials_rv,PrescreenTrials,7d2de,EXP9a,1,0,8
44,609,6345b7f49677d36bd07c5a10,EXP9a_JF,0,7d2de33f1c0e1235bff983d6b029de949199fc2bb2d69cf5074583daa421524c,2104.145861,False,keypress,prescreenRsp_laglack_rv,687,[],choice-response,Lack,655e73d1a60ad4b436a1357f,2023-11-22 16:34:02-05:00,Lag,1536,610,EXP9a_PrescreenTrials_rv,PrescreenTrials,7d2de,EXP9a,0,1,8
45,610,6345b7f49677d36bd07c5a10,EXP9a_JF,0,7d2de33f1c0e1235bff983d6b029de949199fc2bb2d69cf5074583daa421524c,2104.145861,False,keypress,prescreenRsp_fadfat_rv,494,[],choice-response,Fad,655e73d1a60ad4b436a1357f,2023-11-22 16:34:02-05:00,Fat,1321,611,EXP9a_PrescreenTrials_rv,PrescreenTrials,7d2de,EXP9a,0,0,1
46,611,6345b7f49677d36bd07c5a10,EXP9a_JF,0,7d2de33f1c0e1235bff983d6b029de949199fc2bb2d69cf5074583daa421524c,2104.145861,False,keypress,prescreenRsp_beadbeat_rv,779,[],choice-response,Bead,655e73d1a60ad4b436a1357f,2023-11-22 16:34:02-05:00,Beat,1463,612,EXP9a_PrescreenTrials_rv,PrescreenTrials,7d2de,EXP9a,0,0,1
47,612,6345b7f49677d36bd07c5a10,EXP9a_JF,0,7d2de33f1c0e1235bff983d6b029de949199fc2bb2d69cf5074583daa421524c,2104.145861,False,keypress,prescreenRsp_bagback_rv,556,[],choice-response,Back,655e73d1a60ad4b436a1357f,2023-11-22 16:34:02-05:00,Back,1177,613,EXP9a_PrescreenTrials_rv,PrescreenTrials,7d2de,EXP9a,1,1,1
48,613,6345b7f49677d36bd07c5a10,EXP9a_JF,0,7d2de33f1c0e1235bff983d6b029de949199fc2bb2d69cf5074583daa421524c,2104.145861,False,keypress,prescreenRsp_beadbeat_rv,566,[],choice-response,Beat,655e73d1a60ad4b436a1357f,2023-11-22 16:34:02-05:00,Beat,1257,614,EXP9a_PrescreenTrials_rv,PrescreenTrials,7d2de,EXP9a,1,1,1
49,614,6345b7f49677d36bd07c5a10,EXP9a_JF,0,7d2de33f1c0e1235bff983d6b029de949199fc2bb2d69cf5074583daa421524c,2104.145861,False,keypress,prescreenRsp_laglack_rv,657,[],choice-response,Lack,655e73d1a60ad4b436a1357f,2023-11-22 16:34:02-05:00,Lag,1506,615,EXP9a_PrescreenTrials_rv,PrescreenTrials,7d2de,EXP9a,0,1,8
50,615,6345b7f49677d36bd07c5a10,EXP9a_JF,0,7d2de33f1c0e1235bff983d6b029de949199fc2bb2d69cf5074583daa421524c,2104.145861,False,keypress,prescreenRsp_laglack_rv,1456,[],choice-response,Lack,655e73d1a60ad4b436a1357f,2023-11-22 16:34:02-05:00,Lack,2117,616,EXP9a_PrescreenTrials_rv,PrescreenTrials,7d2de,EXP9a,1,1,1
51,616,6345b7f49677d36bd07c5a10,EXP9a_JF,0,7d2de33f1c0e1235bff983d6b029de949199fc2bb2d69cf5074583daa421524c,2104.145861,False,keypress,prescreenRsp_cabcap_rv,447,[],choice-response,Cap,655e73d1a60ad4b436a1357f,2023-11-22 16:34:02-05:00,Cap,1091,617,EXP9a_PrescreenTrials_rv,PrescreenTrials,7d2de,EXP9a,1,1,1
52,617,6345b7f49677d36bd07c5a10,EXP9a_JF,0,7d2de33f1c0e1235bff983d6b029de949199fc2bb2d69cf5074583daa421524c,2104.145861,False,keypress,prescreenRsp_lablap_rv,517,[],choice-response,Lap,655e73d1a60ad4b436a1357f,2023-11-22 16:34:02-05:00,Lap,1155,618,EXP9a_PrescreenTrials_rv,PrescreenTrials,7d2de,EXP9a,1,1,1
53,618,6345b7f49677d36bd07c5a10,EXP9a_JF,0,7d2de33f1c0e1235bff983d6b029de949199fc2bb2d69cf5074583daa421524c,2104.145861,False,keypress,prescreenRsp_lablap_rv,556,[],choice-response,Lab,655e73d1a60ad4b436a1357f,2023-11-22 16:34:02-05:00,Lab,1404,619,EXP9a_PrescreenTrials_rv,PrescreenTrials,7d2de,EXP9a,1,0,8
54,619,6345b7f49677d36bd07c5a10,EXP9a_JF,0,7d2de33f1c0e1235bff983d6b029de949199fc2bb2d69cf5074583daa421524c,2104.145861,False,keypress,prescreenRsp_bagback_rv,634,[],choice-response,Bag,655e73d1a60ad4b436a1357f,2023-11-22 16:34:02-05:00,Bag,1485,620,EXP9a_PrescreenTrials_rv,PrescreenTrials,7d2de,EXP9a,1,0,8
55,620,6345b7f49677d36bd07c5a10,EXP9a_JF,0,7d2de33f1c0e1235bff983d6b029de949199fc2bb2d69cf5074583daa421524c,2104.145861,False,keypress,prescreenRsp_fadfat_rv,1020,[],choice-response,Fad,655e73d1a60ad4b436a1357f,2023-11-22 16:34:02-05:00,Fat,1846,621,EXP9a_PrescreenTrials_rv,PrescreenTrials,7d2de,EXP9a,0,0,1
56,621,6345b7f49677d36bd07c5a10,EXP9a_JF,0,7d2de33f1c0e1235bff983d6b029de949199fc2bb2d69cf5074583daa421524c,2104.145861,False,keypress,prescreenRsp_cabcap_rv,905,[],choice-response,Cab,655e73d1a60ad4b436a1357f,2023-11-22 16:34:02-05:00,Cab,1733,622,EXP9a_PrescreenTrials_rv,PrescreenTrials,7d2de,EXP9a,1,0,8
57,622,6345b7f49677d36bd07c5a10,EXP9a_JF,0,7d2de33f1c0e1235bff983d6b029de949199fc2bb2d69cf5074583daa421524c,2104.145861,False,keypress,prescreenRsp_bagback_rv,818,[],choice-response,Back,655e73d1a60ad4b436a1357f,2023-11-22 16:34:02-05:00,Back,1438,623,EXP9a_PrescreenTrials_rv,PrescreenTrials,7d2de,EXP9a,1,1,1
58,623,6345b7f49677d36bd07c5a10,EXP9a_JF,0,7d2de33f1c0e1235bff983d6b029de949199fc2bb2d69cf5074583daa421524c,2104.145861,False,keypress,prescreenRsp_beadbeat_rv,493,[],choice-response,Bead,655e73d1a60ad4b436a1357f,2023-11-22 16:34:02-05:00,Bead,1363,624,EXP9a_PrescreenTrials_rv,PrescreenTrials,7d2de,EXP9a,1,0,8
59,624,6345b7f49677d36bd07c5a10,EXP9a_JF,0,7d2de33f1c0e1235bff983d6b029de949199fc2bb2d69cf5074583daa421524c,2104.145861,False,keypress,prescreenRsp_fadfat_rv,512,[],choice-response,Fad,655e73d1a60ad4b436a1357f,2023-11-22 16:34:02-05:00,Fad,1524,625,EXP9a_PrescreenTrials_rv,PrescreenTrials,7d2de,EXP9a,1,0,8
60,625,6345b7f49677d36bd07c5a10,EXP9a_JF,0,7d2de33f1c0e1235bff983d6b029de949199fc2bb2d69cf5074583daa421524c,2104.145861,False,keypress,prescreenRsp_beadbeat_rv,539,[],choice-response,Beat,655e73d1a60ad4b436a1357f,2023-11-22 16:34:02-05:00,Beat,1224,626,EXP9a_PrescreenTrials_rv,PrescreenTrials,7d2de,EXP9a,1,1,1
61,626,6345b7f49677d36bd07c5a10,EXP9a_JF,0,7d2de33f1c0e1235bff983d6b029de949199fc2bb2d69cf5074583daa421524c,2104.145861,False,keypress,prescreenRsp_cabcap_rv,632,[],choice-response,Cab,655e73d1a60ad4b436a1357f,2023-11-22 16:34:02-05:00,Cab,1455,627,EXP9a_PrescreenTrials_rv,PrescreenTrials,7d2de,EXP9a,1,0,8
62,627,6345b7f49677d36bd07c5a10,EXP9a_JF,0,7d2de33f1c0e1235bff983d6b029de949199fc2bb2d69cf5074583daa421524c,2104.145861,False,keypress,prescreenRsp_laglack_rv,554,[],choice-response,Lack,655e73d1a60ad4b436a1357f,2023-11-22 16:34:02-05:00,Lack,1213,628,EXP9a_PrescreenTrials_rv,PrescreenTrials,7d2de,EXP9a,1,1,1
63,628,6345b7f49677d36bd07c5a10,EXP9a_JF,0,7d2de33f1c0e1235bff983d6b029de949199fc2bb2d69cf5074583daa421524c,2104.145861,False,keypress,prescreenRsp_bagback_rv,551,[],choice-response,Back,655e73d1a60ad4b436a1357f,2023-11-22 16:34:02-05:00,Back,1172,629,EXP9a_PrescreenTrials_rv,PrescreenTrials,7d2de,EXP9a,1,1,1
64,629,6345b7f49677d36bd07c5a10,EXP9a_JF,0,7d2de33f1c0e1235bff983d6b029de949199fc2bb2d69cf5074583daa421524c,2104.145861,False,keypress,prescreenRsp_bagback_rv,333,[],choice-response,Bag,655e73d1a60ad4b436a1357f,2023-11-22 16:34:02-05:00,Bag,1141,630,EXP9a_PrescreenTrials_rv,PrescreenTrials,7d2de,EXP9a,1,0,8
65,630,6345b7f49677d36bd07c5a10,EXP9a_JF,0,7d2de33f1c0e1235bff983d6b029de949199fc2bb2d69cf5074583daa421524c,2104.145861,False,keypress,prescreenRsp_beadbeat_rv,654,[],choice-response,Bead,655e73d1a60ad4b436a1357f,2023-11-22 16:34:02-05:00,Bead,1524,631,EXP9a_PrescreenTrials_rv,PrescreenTrials,7d2de,EXP9a,1,0,8
66,631,6345b7f49677d36bd07c5a10,EXP9a_JF,0,7d2de33f1c0e1235bff983d6b029de949199fc2bb2d69cf5074583daa421524c,2104.145861,False,keypress,prescreenRsp_cabcap_rv,606,[],choice-response,Cap,655e73d1a60ad4b436a1357f,2023-11-22 16:34:02-05:00,Cap,1243,632,EXP9a_PrescreenTrials_rv,PrescreenTrials,7d2de,EXP9a,1,1,1
67,632,6345b7f49677d36bd07c5a10,EXP9a_JF,0,7d2de33f1c0e1235bff983d6b029de949199fc2bb2d69cf5074583daa421524c,2104.145861,False,keypress,prescreenRsp_laglack_rv,650,[],choice-response,Lack,655e73d1a60ad4b436a1357f,2023-11-22 16:34:02-05:00,Lag,1503,633,EXP9a_PrescreenTrials_rv,PrescreenTrials,7d2de,EXP9a,0,1,8
68,633,6345b7f49677d36bd07c5a10,EXP9a_JF,0,7d2de33f1c0e1235bff983d6b029de949199fc2bb2d69cf5074583daa421524c,2104.145861,False,keypress,prescreenRsp_lablap_rv,1358,[],choice-response,Lap,655e73d1a60ad4b436a1357f,2023-11-22 16:34:02-05:00,Lab,2213,634,EXP9a_PrescreenTrials_rv,PrescreenTrials,7d2de,EXP9a,0,1,8
69,634,6345b7f49677d36bd07c5a10,EXP9a_JF,0,7d2de33f1c0e1235bff983d6b029de949199fc2bb2d69cf5074583daa421524c,2104.145861,False,keypress,prescreenRsp_fadfat_rv,492,[],choice-response,Fat,655e73d1a60ad4b436a1357f,2023-11-22 16:34:02-05:00,Fat,1316,635,EXP9a_PrescreenTrials_rv,PrescreenTrials,7d2de,EXP9a,1,1,1
70,635,6345b7f49677d36bd07c5a10,EXP9a_JF,0,7d2de33f1c0e1235bff983d6b029de949199fc2bb2d69cf5074583daa421524c,2104.145861,False,keypress,prescreenRsp_fadfat_rv,703,[],choice-response,Fad,655e73d1a60ad4b436a1357f,2023-11-22 16:34:02-05:00,Fad,1711,636,EXP9a_PrescreenTrials_rv,PrescreenTrials,7d2de,EXP9a,1,0,8
71,636,6345b7f49677d36bd07c5a10,EXP9a_JF,0,7d2de33f1c0e1235bff983d6b029de949199fc2bb2d69cf5074583daa421524c,2104.145861,False,keypress,prescreenRsp_lablap_rv,862,[],choice-response,Lap,655e73d1a60ad4b436a1357f,2023-11-22 16:34:02-05:00,Lap,1502,637,EXP9a_PrescreenTrials_rv,PrescreenTrials,7d2de,EXP9a,1,1,1
72,637,6345b7f49677d36bd07c5a10,EXP9a_JF,0,7d2de33f1c0e1235bff983d6b029de949199fc2bb2d69cf5074583daa421524c,2104.145861,False,keypress,prescreenRsp_laglack_rv,618,[],choice-response,Lack,655e73d1a60ad4b436a1357f,2023-11-22 16:34:02-05:00,Lag,1467,638,EXP9a_PrescreenTrials_rv,PrescreenTrials,7d2de,EXP9a,0,1,8
73,638,6345b7f49677d36bd07c5a10,EXP9a_JF,0,7d2de33f1c0e1235bff983d6b029de949199fc2bb2d69cf5074583daa421524c,2104.145861,False,keypress,prescreenRsp_cabcap_rv,531,[],choice-response,Cab,655e73d1a60ad4b436a1357f,2023-11-22 16:34:02-05:00,Cab,1360,639,EXP9a_PrescreenTrials_rv,PrescreenTrials,7d2de,EXP9a,1,0,8
74,639,6345b7f49677d36bd07c5a10,EXP9a_JF,0,7d2de33f1c0e1235bff983d6b029de949199fc2bb2d69cf5074583daa421524c,2104.145861,False,keypress,prescreenRsp_beadbeat_rv,788,[],choice-response,Beat,655e73d1a60ad4b436a1357f,2023-11-22 16:34:02-05:00,Beat,1477,640,EXP9a_PrescreenTrials_rv,PrescreenTrials,7d2de,EXP9a,1,1,1
75,640,6345b7f49677d36bd07c5a10,EXP9a_JF,0,7d2de33f1c0e1235bff983d6b029de949199fc2bb2d69cf5074583daa421524c,2104.145861,False,keypress,prescreenRsp_cabcap_rv,539,[],choice-response,Cap,655e73d1a60ad4b436a1357f,2023-11-22 16:34:02-05:00,Cap,1181,641,EXP9a_PrescreenTrials_rv,PrescreenTrials,7d2de,EXP9a,1,1,1
76,641,6345b7f49677d36bd07c5a10,EXP9a_JF,0,7d2de33f1c0e1235bff983d6b029de949199fc2bb2d69cf5074583daa421524c,2104.145861,False,keypress,prescreenRsp_fadfat_rv,489,[],choice-response,Fad,655e73d1a60ad4b436a1357f,2023-11-22 16:34:02-05:00,Fat,1313,642,EXP9a_PrescreenTrials_rv,PrescreenTrials,7d2de,EXP9a,0,0,1
77,642,6345b7f49677d36bd07c5a10,EXP9a_JF,0,7d2de33f1c0e1235bff983d6b029de949199fc2bb2d69cf5074583daa421524c,2104.145861,False,keypress,prescreenRsp_beadbeat_rv,384,[],choice-response,Bead,655e73d1a60ad4b436a1357f,2023-11-22 16:34:02-05:00,Bead,1259,643,EXP9a_PrescreenTrials_rv,PrescreenTrials,7d2de,EXP9a,1,0,8
78,643,6345b7f49677d36bd07c5a10,EXP9a_JF,0,7d2de33f1c0e1235bff983d6b029de949199fc2bb2d69cf5074583daa421524c,2104.145861,False,keypress,prescreenRsp_bagback_rv,505,[],choice-response,Bag,655e73d1a60ad4b436a1357f,2023-11-22 16:34:02-05:00,Bag,1311,644,EXP9a_PrescreenTrials_rv,PrescreenTrials,7d2de,EXP9a,1,0,8
79,644,6345b7f49677d36bd07c5a10,EXP9a_JF,0,7d2de33f1c0e1235bff983d6b029de949199fc2bb2d69cf5074583daa421524c,2104.145861,False,keypress,prescreenRsp_laglack_rv,564,[],choice-response,Lack,655e73d1a60ad4b436a1357f,2023-11-22 16:34:02-05:00,Lack,1230,645,EXP9a_PrescreenTrials_rv,PrescreenTrials,7d2de,EXP9a,1,1,1
80,645,6345b7f49677d36bd07c5a10,EXP9a_JF,0,7d2de33f1c0e1235bff983d6b029de949199fc2bb2d69cf5074583daa421524c,2104.145861,False,keypress,prescreenRsp_lablap_rv,345,[],choice-response,Lab,655e73d1a60ad4b436a1357f,2023-11-22 16:34:02-05:00,Lab,1191,646,EXP9a_PrescreenTrials_rv,PrescreenTrials,7d2de,EXP9a,1,0,8
81,646,6345b7f49677d36bd07c5a10,EXP9a_JF,0,7d2de33f1c0e1235bff983d6b029de949199fc2bb2d69cf5074583daa421524c,2104.145861,False,keypress,prescreenRsp_fadfat_rv,374,[],choice-response,Fad,655e73d1a60ad4b436a1357f,2023-11-22 16:34:02-05:00,Fad,1390,647,EXP9a_PrescreenTrials_rv,PrescreenTrials,7d2de,EXP9a,1,0,8
82,647,6345b7f49677d36bd07c5a10,EXP9a_JF,0,7d2de33f1c0e1235bff983d6b029de949199fc2bb2d69cf5074583daa421524c,2104.145861,False,keypress,prescreenRsp_lablap_rv,951,[],choice-response,Lap,655e73d1a60ad4b436a1357f,2023-11-22 16:34:02-05:00,Lap,1590,648,EXP9a_PrescreenTrials_rv,PrescreenTrials,7d2de,EXP9a,1,1,1
83,648,6345b7f49677d36bd07c5a10,EXP9a_JF,0,7d2de33f1c0e1235bff983d6b029de949199fc2bb2d69cf5074583daa421524c,2104.145861,False,keypress,prescreenRsp_bagback_rv,674,[],choice-response,Back,655e73d1a60ad4b436a1357f,2023-11-22 16:34:02-05:00,Back,1294,649,EXP9a_PrescreenTrials_rv,PrescreenTrials,7d2de,EXP9a,1,1,1
84,649,6345b7f49677d36bd07c5a10,EXP9a_JF,0,7d2de33f1c0e1235bff983d6b029de949199fc2bb2d69cf5074583daa421524c,2104.145861,False,keypress,prescreenRsp_beadbeat_rv,388,[],choice-response,Bead,655e73d1a60ad4b436a1357f,2023-11-22 16:34:02-05:00,Bead,1266,650,EXP9a_PrescreenTrials_rv,PrescreenTrials,7d2de,EXP9a,1,0,8
85,650,6345b7f49677d36bd07c5a10,EXP9a_JF,0,7d2de33f1c0e1235bff983d6b029de949199fc2bb2d69cf5074583daa421524c,2104.145861,False,keypress,prescreenRsp_cabcap_rv,800,[],choice-response,Cap,655e73d1a60ad4b436a1357f,2023-11-22 16:34:02-05:00,Cap,1443,651,EXP9a_PrescreenTrials_rv,PrescreenTrials,7d2de,EXP9a,1,1,1
86,651,6345b7f49677d36bd07c5a10,EXP9a_JF,0,7d2de33f1c0e1235bff983d6b029de949199fc2bb2d69cf5074583daa421524c,2104.145861,False,keypress,prescreenRsp_beadbeat_rv,407,[],choice-response,Bead,655e73d1a60ad4b436a1357f,2023-11-22 16:34:02-05:00,Beat,1091,652,EXP9a_PrescreenTrials_rv,PrescreenTrials,7d2de,EXP9a,0,0,1
87,652,6345b7f49677d36bd07c5a10,EXP9a_JF,0,7d2de33f1c0e1235bff983d6b029de949199fc2bb2d69cf5074583daa421524c,2104.145861,False,keypress,prescreenRsp_fadfat_rv,816,[],choice-response,Fad,655e73d1a60ad4b436a1357f,2023-11-22 16:34:02-05:00,Fat,1646,653,EXP9a_PrescreenTrials_rv,PrescreenTrials,7d2de,EXP9a,0,0,1
88,653,6345b7f49677d36bd07c5a10,EXP9a_JF,0,7d2de33f1c0e1235bff983d6b029de949199fc2bb2d69cf5074583daa421524c,2104.145861,False,keypress,prescreenRsp_fadfat_rv,483,[],choice-response,Fad,655e73d1a60ad4b436a1357f,2023-11-22 16:34:02-05:00,Fad,1495,654,EXP9a_PrescreenTrials_rv,PrescreenTrials,7d2de,EXP9a,1,0,8
89,654,6345b7f49677d36bd07c5a10,EXP9a_JF,0,7d2de33f1c0e1235bff983d6b029de949199fc2bb2d69cf5074583daa421524c,2104.145861,False,keypress,prescreenRsp_laglack_rv,752,[],choice-response,Lack,655e73d1a60ad4b436a1357f,2023-11-22 16:34:02-05:00,Lag,1605,655,EXP9a_PrescreenTrials_rv,PrescreenTrials,7d2de,EXP9a,0,1,8
90,655,6345b7f49677d36bd07c5a10,EXP9a_JF,0,7d2de33f1c0e1235bff983d6b029de949199fc2bb2d69cf5074583daa421524c,2104.145861,False,keypress,prescreenRsp_lablap_rv,710,[],choice-response,Lap,655e73d1a60ad4b436a1357f,2023-11-22 16:34:02-05:00,Lap,1351,656,EXP9a_PrescreenTrials_rv,PrescreenTrials,7d2de,EXP9a,1,1,1
91,656,6345b7f49677d36bd07c5a10,EXP9a_JF,0,7d2de33f1c0e1235bff983d6b029de949199fc2bb2d69cf5074583daa421524c,2104.145861,False,keypress,prescreenRsp_laglack_rv,1055,[],choice-response,Lack,655e73d1a60ad4b436a1357f,2023-11-22 16:34:02-05:00,Lack,1723,657,EXP9a_PrescreenTrials_rv,PrescreenTrials,7d2de,EXP9a,1,1,1
92,657,6345b7f49677d36bd07c5a10,EXP9a_JF,0,7d2de33f1c0e1235bff983d6b029de949199fc2bb2d69cf5074583daa421524c,2104.145861,False,keypress,prescreenRsp_bagback_rv,638,[],choice-response,Back,655e73d1a60ad4b436a1357f,2023-11-22 16:34:02-05:00,Back,1249,658,EXP9a_PrescreenTrials_rv,PrescreenTrials,7d2de,EXP9a,1,1,1
93,658,6345b7f49677d36bd07c5a10,EXP9a_JF,0,7d2de33f1c0e1235bff983d6b029de949199fc2bb2d69cf5074583daa421524c,2104.145861,False,keypress,prescreenRsp_bagback_rv,493,[],choice-response,Bag,655e73d1a60ad4b436a1357f,2023-11-22 16:34:02-05:00,Bag,1296,659,EXP9a_PrescreenTrials_rv,PrescreenTrials,7d2de,EXP9a,1,0,8
94,659,6345b7f49677d36bd07c5a10,EXP9a_JF,0,7d2de33f1c0e1235bff983d6b029de949199fc2bb2d69cf5074583daa421524c,2104.145861,False,keypress,prescreenRsp_lablap_rv,1006,[],choice-response,Lab,655e73d1a60ad4b436a1357f,2023-11-22 16:34:02-05:00,Lab,1853,660,EXP9a_PrescreenTrials_rv,PrescreenTrials,7d2de,EXP9a,1,0,8
95,660,6345b7f49677d36bd07c5a10,EXP9a_JF,0,7d2de33f1c0e1235bff983d6b029de949199fc2bb2d69cf5074583daa421524c,2104.145861,False,keypress,prescreenRsp_cabcap_rv,496,[],choice-response,Cab,655e73d1a60ad4b436a1357f,2023-11-22 16:34:02-05:00,Cab,1317,661,EXP9a_PrescreenTrials_rv,PrescreenTrials,7d2de,EXP9a,1,0,8
96,661,6345b7f49677d36bd07c5a10,EXP9a_JF,0,7d2de33f1c0e1235bff983d6b029de949199fc2bb2d69cf5074583daa421524c,2104.145861,False,keypress,prescreenRsp_cabcap_rv,343,[],choice-response,Cab,655e73d1a60ad4b436a1357f,2023-11-22 16:34:02-05:00,Cab,1163,662,EXP9a_PrescreenTrials_rv,PrescreenTrials,7d2de,EXP9a,1,0,8
97,662,6345b7f49677d36bd07c5a10,EXP9a_JF,0,7d2de33f1c0e1235bff983d6b029de949199fc2bb2d69cf5074583daa421524c,2104.145861,False,keypress,prescreenRsp_fadfat_rv,555,[],choice-response,Fat,655e73d1a60ad4b436a1357f,2023-11-22 16:34:02-05:00,Fat,1386,663,EXP9a_PrescreenTrials_rv,PrescreenTrials,7d2de,EXP9a,1,1,1
98,663,6345b7f49677d36bd07c5a10,EXP9a_JF,0,7d2de33f1c0e1235bff983d6b029de949199fc2bb2d69cf5074583daa421524c,2104.145861,False,keypress,prescreenRsp_bagback_rv,907,[],choice-response,Back,655e73d1a60ad4b436a1357f,2023-11-22 16:34:02-05:00,Back,1526,664,EXP9a_PrescreenTrials_rv,PrescreenTrials,7d2de,EXP9a,1,1,1
99,664,6345b7f49677d36bd07c5a10,EXP9a_JF,0,7d2de33f1c0e1235bff983d6b029de949199fc2bb2d69cf5074583daa421524c,2104.145861,False,keypress,prescreenRsp_lablap_rv,601,[],choice-response,Lab,655e73d1a60ad4b436a1357f,2023-11-22 16:34:02-05:00,Lab,1454,665,EXP9a_PrescreenTrials_rv,PrescreenTrials,7d2de,EXP9a,1,0,8
100,665,6345b7f49677d36bd07c5a10,EXP9a_JF,0,7d2de33f1c0e1235bff983d6b029de949199fc2bb2d69cf5074583daa421524c,2104.145861,False,keypress,prescreenRsp_laglack_rv,598,[],choice-response,Lack,655e73d1a60ad4b436a1357f,2023-11-22 16:34:02-05:00,Lack,1263,666,EXP9a_PrescreenTrials_rv,PrescreenTrials,7d2de,EXP9a,1,1,1
101,666,6345b7f49677d36bd07c5a10,EXP9a_JF,0,7d2de33f1c0e1235bff983d6b029de949199fc2bb2d69cf5074583daa421524c,2104.145861,False,keypress,prescreenRsp_lablap_rv,785,[],choice-response,Lap,655e73d1a60ad4b436a1357f,2023-11-22 16:34:02-05:00,Lap,1427,667,EXP9a_PrescreenTrials_rv,PrescreenTrials,7d2de,EXP9a,1,1,1
102,667,6345b7f49677d36bd07c5a10,EXP9a_JF,0,7d2de33f1c0e1235bff983d6b029de949199fc2bb2d69cf5074583daa421524c,2104.145861,False,keypress,prescreenRsp_beadbeat_rv,295,[],choice-response,Bead,655e73d1a60ad4b436a1357f,2023-11-22 16:34:02-05:00,Bead,1172,668,EXP9a_PrescreenTrials_rv,PrescreenTrials,7d2de,EXP9a,1,0,8
103,668,6345b7f49677d36bd07c5a10,EXP9a_JF,0,7d2de33f1c0e1235bff983d6b029de949199fc2bb2d69cf5074583daa421524c,2104.145861,False,keypress,prescreenRsp_cabcap_rv,790,[],choice-response,Cap,655e73d1a60ad4b436a1357f,2023-11-22 16:34:02-05:00,Cap,1438,669,EXP9a_PrescreenTrials_rv,PrescreenTrials,7d2de,EXP9a,1,1,1
104,669,6345b7f49677d36bd07c5a10,EXP9a_JF,0,7d2de33f1c0e1235bff983d6b029de949199fc2bb2d69cf5074583daa421524c,2104.145861,False,keypress,prescreenRsp_fadfat_rv,535,[],choice-response,Fad,655e73d1a60ad4b436a1357f,2023-11-22 16:34:02-05:00,Fad,1551,670,EXP9a_PrescreenTrials_rv,PrescreenTrials,7d2de,EXP9a,1,0,8
105,670,6345b7f49677d36bd07c5a10,EXP9a_JF,0,7d2de33f1c0e1235bff983d6b029de949199fc2bb2d69cf5074583daa421524c,2104.145861,False,keypress,prescreenRsp_bagback_rv,905,[],choice-response,Bag,655e73d1a60ad4b436a1357f,2023-11-22 16:34:02-05:00,Bag,1709,671,EXP9a_PrescreenTrials_rv,PrescreenTrials,7d2de,EXP9a,1,0,8
106,671,6345b7f49677d36bd07c5a10,EXP9a_JF,0,7d2de33f1c0e1235bff983d6b029de949199fc2bb2d69cf5074583daa421524c,2104.145861,False,keypress,prescreenRsp_beadbeat_rv,610,[],choice-response,Bead,655e73d1a60ad4b436a1357f,2023-11-22 16:34:02-05:00,Beat,1297,672,EXP9a_PrescreenTrials_rv,PrescreenTrials,7d2de,EXP9a,0,0,1
107,672,6345b7f49677d36bd07c5a10,EXP9a_JF,0,7d2de33f1c0e1235bff983d6b029de949199fc2bb2d69cf5074583daa421524c,2104.145861,False,keypress,prescreenRsp_laglack_rv,607,[],choice-response,Lack,655e73d1a60ad4b436a1357f,2023-11-22 16:34:02-05:00,Lag,1451,673,EXP9a_PrescreenTrials_rv,PrescreenTrials,7d2de,EXP9a,0,1,8
108,673,6345b7f49677d36bd07c5a10,EXP9a_JF,0,7d2de33f1c0e1235bff983d6b029de949199fc2bb2d69cf5074583daa421524c,2104.145861,False,keypress,prescreenRsp_bagback_rv,1148,[],choice-response,Bag,655e73d1a60ad4b436a1357f,2023-11-22 16:34:02-05:00,Bag,1949,674,EXP9a_PrescreenTrials_rv,PrescreenTrials,7d2de,EXP9a,1,0,8
109,674,6345b7f49677d36bd07c5a10,EXP9a_JF,0,7d2de33f1c0e1235bff983d6b029de949199fc2bb2d69cf5074583daa421524c,2104.145861,False,keypress,prescreenRsp_beadbeat_rv,571,[],choice-response,Bead,655e73d1a60ad4b436a1357f,2023-11-22 16:34:02-05:00,Beat,1256,675,EXP9a_PrescreenTrials_rv,PrescreenTrials,7d2de,EXP9a,0,0,1
110,675,6345b7f49677d36bd07c5a10,EXP9a_JF,0,7d2de33f1c0e1235bff983d6b029de949199fc2bb2d69cf5074583daa421524c,2104.145861,False,keypress,prescreenRsp_cabcap_rv,714,[],choice-response,Cap,655e73d1a60ad4b436a1357f,2023-11-22 16:34:02-05:00,Cap,1357,676,EXP9a_PrescreenTrials_rv,PrescreenTrials,7d2de,EXP9a,1,1,1
111,676,6345b7f49677d36bd07c5a10,EXP9a_JF,0,7d2de33f1c0e1235bff983d6b029de949199fc2bb2d69cf5074583daa421524c,2104.145861,False,keypress,prescreenRsp_fadfat_rv,452,[],choice-response,Fad,655e73d1a60ad4b436a1357f,2023-11-22 16:34:02-05:00,Fad,1468,677,EXP9a_PrescreenTrials_rv,PrescreenTrials,7d2de,EXP9a,1,0,8
112,677,6345b7f49677d36bd07c5a10,EXP9a_JF,0,7d2de33f1c0e1235bff983d6b029de949199fc2bb2d69cf5074583daa421524c,2104.145861,False,keypress,prescreenRsp_cabcap_rv,674,[],choice-response,Cab,655e73d1a60ad4b436a1357f,2023-11-22 16:34:02-05:00,Cab,1504,678,EXP9a_PrescreenTrials_rv,PrescreenTrials,7d2de,EXP9a,1,0,8
113,678,6345b7f49677d36bd07c5a10,EXP9a_JF,0,7d2de33f1c0e1235bff983d6b029de949199fc2bb2d69cf5074583daa421524c,2104.145861,False,keypress,prescreenRsp_laglack_rv,481,[],choice-response,Lack,655e73d1a60ad4b436a1357f,2023-11-22 16:34:02-05:00,Lack,1145,679,EXP9a_PrescreenTrials_rv,PrescreenTrials,7d2de,EXP9a,1,1,1
114,679,6345b7f49677d36bd07c5a10,EXP9a_JF,0,7d2de33f1c0e1235bff983d6b029de949199fc2bb2d69cf5074583daa421524c,2104.145861,False,keypress,prescreenRsp_laglack_rv,671,[],choice-response,Lack,655e73d1a60ad4b436a1357f,2023-11-22 16:34:02-05:00,Lag,1522,680,EXP9a_PrescreenTrials_rv,PrescreenTrials,7d2de,EXP9a,0,1,8
115,680,6345b7f49677d36bd07c5a10,EXP9a_JF,0,7d2de33f1c0e1235bff983d6b029de949199fc2bb2d69cf5074583daa421524c,2104.145861,False,keypress,prescreenRsp_fadfat_rv,572,[],choice-response,Fad,655e73d1a60ad4b436a1357f,2023-11-22 16:34:02-05:00,Fat,1402,681,EXP9a_PrescreenTrials_rv,PrescreenTrials,7d2de,EXP9a,0,0,1
116,681,6345b7f49677d36bd07c5a10,EXP9a_JF,0,7d2de33f1c0e1235bff983d6b029de949199fc2bb2d69cf5074583daa421524c,2104.145861,False,keypress,prescreenRsp_lablap_rv,988,[],choice-response,Lab,655e73d1a60ad4b436a1357f,2023-11-22 16:34:02-05:00,Lab,1840,682,EXP9a_PrescreenTrials_rv,PrescreenTrials,7d2de,EXP9a,1,0,8
117,682,6345b7f49677d36bd07c5a10,EXP9a_JF,0,7d2de33f1c0e1235bff983d6b029de949199fc2bb2d69cf5074583daa421524c,2104.145861,False,keypress,prescreenRsp_lablap_rv,573,[],choice-response,Lap,655e73d1a60ad4b436a1357f,2023-11-22 16:34:02-05:00,Lap,1218,683,EXP9a_PrescreenTrials_rv,PrescreenTrials,7d2de,EXP9a,1,1,1
118,683,6345b7f49677d36bd07c5a10,EXP9a_JF,0,7d2de33f1c0e1235bff983d6b029de949199fc2bb2d69cf5074583daa421524c,2104.145861,False,keypress,prescreenRsp_beadbeat_rv,327,[],choice-response,Bead,655e73d1a60ad4b436a1357f,2023-11-22 16:34:02-05:00,Bead,1202,684,EXP9a_PrescreenTrials_rv,PrescreenTrials,7d2de,EXP9a,1,0,8
119,684,6345b7f49677d36bd07c5a10,EXP9a_JF,0,7d2de33f1c0e1235bff983d6b029de949199fc2bb2d69cf5074583daa421524c,2104.145861,False,keypress,prescreenRsp_bagback_rv,425,[],choice-response,Back,655e73d1a60ad4b436a1357f,2023-11-22 16:34:02-05:00,Back,1045,685,EXP9a_PrescreenTrials_rv,PrescreenTrials,7d2de,EXP9a,1,1,1
120,1263,6345b7f49677d36bd07c5a10,EXP9a_FJ,0,5bca64c0bdc6f9f7b18ee34068bbbb9d2ccd2dacc02b22c789f610b57f8480d3,2866.201078,False,keypress,prescreenRsp_laglack,2454,[],choice-response,Lag,655e73d1a60ad4b436a1357f,2023-11-22 16:34:02-05:00,Lag,5248,566,EXP9a_PrescreenTrials,PrescreenTrials,5bca6,EXP9a,1,0,8
121,1264,6345b7f49677d36bd07c5a10,EXP9a_FJ,0,5bca64c0bdc6f9f7b18ee34068bbbb9d2ccd2dacc02b22c789f610b57f8480d3,2866.201078,False,keypress,prescreenRsp_fadfat,1273,[],choice-response,Fat,655e73d1a60ad4b436a1357f,2023-11-22 16:34:02-05:00,Fat,2849,567,EXP9a_PrescreenTrials,PrescreenTrials,5bca6,EXP9a,1,1,1
122,1265,6345b7f49677d36bd07c5a10,EXP9a_FJ,0,5bca64c0bdc6f9f7b18ee34068bbbb9d2ccd2dacc02b22c789f610b57f8480d3,2866.201078,False,keypress,prescreenRsp_bagback,829,[],choice-response,Bag,655e73d1a60ad4b436a1357f,2023-11-22 16:34:02-05:00,Bag,2609,568,EXP9a_PrescreenTrials,PrescreenTrials,5bca6,EXP9a,1,0,8
123,1266,6345b7f49677d36bd07c5a10,EXP9a_FJ,0,5bca64c0bdc6f9f7b18ee34068bbbb9d2ccd2dacc02b22c789f610b57f8480d3,2866.201078,False,keypress,prescreenRsp_bagback,895,[],choice-response,Back,655e73d1a60ad4b436a1357f,2023-11-22 16:34:02-05:00,Back,2265,569,EXP9a_PrescreenTrials,PrescreenTrials,5bca6,EXP9a,1,1,1
124,1267,6345b7f49677d36bd07c5a10,EXP9a_FJ,0,5bca64c0bdc6f9f7b18ee34068bbbb9d2ccd2dacc02b22c789f610b57f8480d3,2866.201078,False,keypress,prescreenRsp_lablap,916,[],choice-response,Lab,655e73d1a60ad4b436a1357f,2023-11-22 16:34:02-05:00,Lab,2634,570,EXP9a_PrescreenTrials,PrescreenTrials,5bca6,EXP9a,1,0,8
125,1268,6345b7f49677d36bd07c5a10,EXP9a_FJ,0,5bca64c0bdc6f9f7b18ee34068bbbb9d2ccd2dacc02b22c789f610b57f8480d3,2866.201078,False,keypress,prescreenRsp_fadfat,857,[],choice-response,Fad,655e73d1a60ad4b436a1357f,2023-11-22 16:34:02-05:00,Fad,2950,571,EXP9a_PrescreenTrials,PrescreenTrials,5bca6,EXP9a,1,0,8
126,1269,6345b7f49677d36bd07c5a10,EXP9a_FJ,0,5bca64c0bdc6f9f7b18ee34068bbbb9d2ccd2dacc02b22c789f610b57f8480d3,2866.201078,False,keypress,prescreenRsp_lablap,719,[],choice-response,Lap,655e73d1a60ad4b436a1357f,2023-11-22 16:34:02-05:00,Lap,2113,572,EXP9a_PrescreenTrials,PrescreenTrials,5bca6,EXP9a,1,1,1
127,1270,6345b7f49677d36bd07c5a10,EXP9a_FJ,0,5bca64c0bdc6f9f7b18ee34068bbbb9d2ccd2dacc02b22c789f610b57f8480d3,2866.201078,False,keypress,prescreenRsp_laglack,896,[],choice-response,Lack,655e73d1a60ad4b436a1357f,2023-11-22 16:34:02-05:00,Lack,2386,573,EXP9a_PrescreenTrials,PrescreenTrials,5bca6,EXP9a,1,1,1
128,1271,6345b7f49677d36bd07c5a10,EXP9a_FJ,0,5bca64c0bdc6f9f7b18ee34068bbbb9d2ccd2dacc02b22c789f610b57f8480d3,2866.201078,False,keypress,prescreenRsp_beadbeat,1301,[],choice-response,Bead,655e73d1a60ad4b436a1357f,2023-11-22 16:34:02-05:00,Bead,2806,574,EXP9a_PrescreenTrials,PrescreenTrials,5bca6,EXP9a,1,0,8
129,1272,6345b7f49677d36bd07c5a10,EXP9a_FJ,0,5bca64c0bdc6f9f7b18ee34068bbbb9d2ccd2dacc02b22c789f610b57f8480d3,2866.201078,False,keypress,prescreenRsp_cabcap,988,[],choice-response,Cab,655e73d1a60ad4b436a1357f,2023-11-22 16:34:02-05:00,Cab,2684,575,EXP9a_PrescreenTrials,PrescreenTrials,5bca6,EXP9a,1,0,8
130,1273,6345b7f49677d36bd07c5a10,EXP9a_FJ,0,5bca64c0bdc6f9f7b18ee34068bbbb9d2ccd2dacc02b22c789f610b57f8480d3,2866.201078,False,keypress,prescreenRsp_cabcap,778,[],choice-response,Cap,655e73d1a60ad4b436a1357f,2023-11-22 16:34:02-05:00,Cap,2231,576,EXP9a_PrescreenTrials,PrescreenTrials,5bca6,EXP9a,1,1,1
131,1274,6345b7f49677d36bd07c5a10,EXP9a_FJ,0,5bca64c0bdc6f9f7b18ee34068bbbb9d2ccd2dacc02b22c789f610b57f8480d3,2866.201078,False,keypress,prescreenRsp_beadbeat,1348,[],choice-response,Bead,655e73d1a60ad4b436a1357f,2023-11-22 16:34:02-05:00,Beat,3227,577,EXP9a_PrescreenTrials,PrescreenTrials,5bca6,EXP9a,0,0,1
132,1275,6345b7f49677d36bd07c5a10,EXP9a_FJ,0,5bca64c0bdc6f9f7b18ee34068bbbb9d2ccd2dacc02b22c789f610b57f8480d3,2866.201078,False,keypress,prescreenRsp_beadbeat,988,[],choice-response,Beat,655e73d1a60ad4b436a1357f,2023-11-22 16:34:02-05:00,Beat,2003,578,EXP9a_PrescreenTrials,PrescreenTrials,5bca6,EXP9a,1,1,1
133,1276,6345b7f49677d36bd07c5a10,EXP9a_FJ,0,5bca64c0bdc6f9f7b18ee34068bbbb9d2ccd2dacc02b22c789f610b57f8480d3,2866.201078,False,keypress,prescreenRsp_laglack,838,[],choice-response,Lack,655e73d1a60ad4b436a1357f,2023-11-22 16:34:02-05:00,Lack,1865,579,EXP9a_PrescreenTrials,PrescreenTrials,5bca6,EXP9a,1,1,1
134,1277,6345b7f49677d36bd07c5a10,EXP9a_FJ,0,5bca64c0bdc6f9f7b18ee34068bbbb9d2ccd2dacc02b22c789f610b57f8480d3,2866.201078,False,keypress,prescreenRsp_fadfat,919,[],choice-response,Fat,655e73d1a60ad4b436a1357f,2023-11-22 16:34:02-05:00,Fat,2135,580,EXP9a_PrescreenTrials,PrescreenTrials,5bca6,EXP9a,1,1,1
135,1278,6345b7f49677d36bd07c5a10,EXP9a_FJ,0,5bca64c0bdc6f9f7b18ee34068bbbb9d2ccd2dacc02b22c789f610b57f8480d3,2866.201078,False,keypress,prescreenRsp_lablap,846,[],choice-response,Lab,655e73d1a60ad4b436a1357f,2023-11-22 16:34:02-05:00,Lab,2062,581,EXP9a_PrescreenTrials,PrescreenTrials,5bca6,EXP9a,1,0,8
136,1279,6345b7f49677d36bd07c5a10,EXP9a_FJ,0,5bca64c0bdc6f9f7b18ee34068bbbb9d2ccd2dacc02b22c789f610b57f8480d3,2866.201078,False,keypress,prescreenRsp_bagback,1661,[],choice-response,Back,655e73d1a60ad4b436a1357f,2023-11-22 16:34:02-05:00,Back,2684,582,EXP9a_PrescreenTrials,PrescreenTrials,5bca6,EXP9a,1,1,1
137,1280,6345b7f49677d36bd07c5a10,EXP9a_FJ,0,5bca64c0bdc6f9f7b18ee34068bbbb9d2ccd2dacc02b22c789f610b57f8480d3,2866.201078,False,keypress,prescreenRsp_fadfat,984,[],choice-response,Fad,655e73d1a60ad4b436a1357f,2023-11-22 16:34:02-05:00,Fad,2385,583,EXP9a_PrescreenTrials,PrescreenTrials,5bca6,EXP9a,1,0,8
138,1281,6345b7f49677d36bd07c5a10,EXP9a_FJ,0,5bca64c0bdc6f9f7b18ee34068bbbb9d2ccd2dacc02b22c789f610b57f8480d3,2866.201078,False,keypress,prescreenRsp_laglack,1046,[],choice-response,Lag,655e73d1a60ad4b436a1357f,2023-11-22 16:34:02-05:00,Lag,2255,584,EXP9a_PrescreenTrials,PrescreenTrials,5bca6,EXP9a,1,0,8
139,1282,6345b7f49677d36bd07c5a10,EXP9a_FJ,0,5bca64c0bdc6f9f7b18ee34068bbbb9d2ccd2dacc02b22c789f610b57f8480d3,2866.201078,False,keypress,prescreenRsp_cabcap,1169,[],choice-response,Cap,655e73d1a60ad4b436a1357f,2023-11-22 16:34:02-05:00,Cap,2188,585,EXP9a_PrescreenTrials,PrescreenTrials,5bca6,EXP9a,1,1,1
140,1283,6345b7f49677d36bd07c5a10,EXP9a_FJ,0,5bca64c0bdc6f9f7b18ee34068bbbb9d2ccd2dacc02b22c789f610b57f8480d3,2866.201078,False,keypress,prescreenRsp_cabcap,848,[],choice-response,Cab,655e73d1a60ad4b436a1357f,2023-11-22 16:34:02-05:00,Cab,2057,586,EXP9a_PrescreenTrials,PrescreenTrials,5bca6,EXP9a,1,0,8
141,1284,6345b7f49677d36bd07c5a10,EXP9a_FJ,0,5bca64c0bdc6f9f7b18ee34068bbbb9d2ccd2dacc02b22c789f610b57f8480d3,2866.201078,False,keypress,prescreenRsp_lablap,1115,[],choice-response,Lap,655e73d1a60ad4b436a1357f,2023-11-22 16:34:02-05:00,Lap,2136,587,EXP9a_PrescreenTrials,PrescreenTrials,5bca6,EXP9a,1,1,1
142,1285,6345b7f49677d36bd07c5a10,EXP9a_FJ,0,5bca64c0bdc6f9f7b18ee34068bbbb9d2ccd2dacc02b22c789f610b57f8480d3,2866.201078,False,keypress,prescreenRsp_bagback,1219,[],choice-response,Bag,655e73d1a60ad4b436a1357f,2023-11-22 16:34:02-05:00,Bag,2436,588,EXP9a_PrescreenTrials,PrescreenTrials,5bca6,EXP9a,1,0,8
143,1286,6345b7f49677d36bd07c5a10,EXP9a_FJ,0,5bca64c0bdc6f9f7b18ee34068bbbb9d2ccd2dacc02b22c789f610b57f8480d3,2866.201078,False,keypress,prescreenRsp_beadbeat,1019,[],choice-response,Bead,655e73d1a60ad4b436a1357f,2023-11-22 16:34:02-05:00,Bead,2232,589,EXP9a_PrescreenTrials,PrescreenTrials,5bca6,EXP9a,1,0,8
144,1287,6345b7f49677d36bd07c5a10,EXP9a_FJ,0,5bca64c0bdc6f9f7b18ee34068bbbb9d2ccd2dacc02b22c789f610b57f8480d3,2866.201078,False,keypress,prescreenRsp_cabcap,1184,[],choice-response,Cab,655e73d1a60ad4b436a1357f,2023-11-22 16:34:02-05:00,Cab,2374,590,EXP9a_PrescreenTrials,PrescreenTrials,5bca6,EXP9a,1,0,8
145,1288,6345b7f49677d36bd07c5a10,EXP9a_FJ,0,5bca64c0bdc6f9f7b18ee34068bbbb9d2ccd2dacc02b22c789f610b57f8480d3,2866.201078,False,keypress,prescreenRsp_beadbeat,1015,[],choice-response,Bead,655e73d1a60ad4b436a1357f,2023-11-22 16:34:02-05:00,Bead,2213,591,EXP9a_PrescreenTrials,PrescreenTrials,5bca6,EXP9a,1,0,8
146,1289,6345b7f49677d36bd07c5a10,EXP9a_FJ,0,5bca64c0bdc6f9f7b18ee34068bbbb9d2ccd2dacc02b22c789f610b57f8480d3,2866.201078,False,keypress,prescreenRsp_bagback,800,[],choice-response,Bag,655e73d1a60ad4b436a1357f,2023-11-22 16:34:02-05:00,Bag,1995,592,EXP9a_PrescreenTrials,PrescreenTrials,5bca6,EXP9a,1,0,8
147,1290,6345b7f49677d36bd07c5a10,EXP9a_FJ,0,5bca64c0bdc6f9f7b18ee34068bbbb9d2ccd2dacc02b22c789f610b57f8480d3,2866.201078,False,keypress,prescreenRsp_beadbeat,1244,[],choice-response,Beat,655e73d1a60ad4b436a1357f,2023-11-22 16:34:02-05:00,Beat,2261,593,EXP9a_PrescreenTrials,PrescreenTrials,5bca6,EXP9a,1,1,1
148,1291,6345b7f49677d36bd07c5a10,EXP9a_FJ,0,5bca64c0bdc6f9f7b18ee34068bbbb9d2ccd2dacc02b22c789f610b57f8480d3,2866.201078,False,keypress,prescreenRsp_fadfat,922,[],choice-response,Fat,655e73d1a60ad4b436a1357f,2023-11-22 16:34:02-05:00,Fat,2128,594,EXP9a_PrescreenTrials,PrescreenTrials,5bca6,EXP9a,1,1,1
149,1292,6345b7f49677d36bd07c5a10,EXP9a_FJ,0,5bca64c0bdc6f9f7b18ee34068bbbb9d2ccd2dacc02b22c789f610b57f8480d3,2866.201078,False,keypress,prescreenRsp_bagback,1254,[],choice-response,Bag,655e73d1a60ad4b436a1357f,2023-11-22 16:34:02-05:00,Back,2282,595,EXP9a_PrescreenTrials,PrescreenTrials,5bca6,EXP9a,0,0,1
150,1293,6345b7f49677d36bd07c5a10,EXP9a_FJ,0,5bca64c0bdc6f9f7b18ee34068bbbb9d2ccd2dacc02b22c789f610b57f8480d3,2866.201078,False,keypress,prescreenRsp_lablap,894,[],choice-response,Lap,655e73d1a60ad4b436a1357f,2023-11-22 16:34:02-05:00,Lap,1996,596,EXP9a_PrescreenTrials,PrescreenTrials,5bca6,EXP9a,1,1,1
151,1294,6345b7f49677d36bd07c5a10,EXP9a_FJ,0,5bca64c0bdc6f9f7b18ee34068bbbb9d2ccd2dacc02b22c789f610b57f8480d3,2866.201078,False,keypress,prescreenRsp_laglack,986,[],choice-response,Lag,655e73d1a60ad4b436a1357f,2023-11-22 16:34:02-05:00,Lag,2202,597,EXP9a_PrescreenTrials,PrescreenTrials,5bca6,EXP9a,1,0,8
152,1295,6345b7f49677d36bd07c5a10,EXP9a_FJ,0,5bca64c0bdc6f9f7b18ee34068bbbb9d2ccd2dacc02b22c789f610b57f8480d3,2866.201078,False,keypress,prescreenRsp_lablap,1319,[],choice-response,Lab,655e73d1a60ad4b436a1357f,2023-11-22 16:34:02-05:00,Lab,2528,598,EXP9a_PrescreenTrials,PrescreenTrials,5bca6,EXP9a,1,0,8
153,1296,6345b7f49677d36bd07c5a10,EXP9a_FJ,0,5bca64c0bdc6f9f7b18ee34068bbbb9d2ccd2dacc02b22c789f610b57f8480d3,2866.201078,False,keypress,prescreenRsp_cabcap,1342,[],choice-response,Cap,655e73d1a60ad4b436a1357f,2023-11-22 16:34:02-05:00,Cap,2369,599,EXP9a_PrescreenTrials,PrescreenTrials,5bca6,EXP9a,1,1,1
154,1297,6345b7f49677d36bd07c5a10,EXP9a_FJ,0,5bca64c0bdc6f9f7b18ee34068bbbb9d2ccd2dacc02b22c789f610b57f8480d3,2866.201078,False,keypress,prescreenRsp_laglack,1048,[],choice-response,Lack,655e73d1a60ad4b436a1357f,2023-11-22 16:34:02-05:00,Lack,2075,600,EXP9a_PrescreenTrials,PrescreenTrials,5bca6,EXP9a,1,1,1
155,1298,6345b7f49677d36bd07c5a10,EXP9a_FJ,0,5bca64c0bdc6f9f7b18ee34068bbbb9d2ccd2dacc02b22c789f610b57f8480d3,2866.201078,False,keypress,prescreenRsp_fadfat,884,[],choice-response,Fad,655e73d1a60ad4b436a1357f,2023-11-22 16:34:02-05:00,Fad,2280,601,EXP9a_PrescreenTrials,PrescreenTrials,5bca6,EXP9a,1,0,8
156,1299,6345b7f49677d36bd07c5a10,EXP9a_FJ,0,5bca64c0bdc6f9f7b18ee34068bbbb9d2ccd2dacc02b22c789f610b57f8480d3,2866.201078,False,keypress,prescreenRsp_lablap,1364,[],choice-response,Lab,655e73d1a60ad4b436a1357f,2023-11-22 16:34:02-05:00,Lab,2565,602,EXP9a_PrescreenTrials,PrescreenTrials,5bca6,EXP9a,1,0,8
157,1300,6345b7f49677d36bd07c5a10,EXP9a_FJ,0,5bca64c0bdc6f9f7b18ee34068bbbb9d2ccd2dacc02b22c789f610b57f8480d3,2866.201078,False,keypress,prescreenRsp_bagback,921,[],choice-response,Back,655e73d1a60ad4b436a1357f,2023-11-22 16:34:02-05:00,Back,1932,603,EXP9a_PrescreenTrials,PrescreenTrials,5bca6,EXP9a,1,1,1
158,1301,6345b7f49677d36bd07c5a10,EXP9a_FJ,0,5bca64c0bdc6f9f7b18ee34068bbbb9d2ccd2dacc02b22c789f610b57f8480d3,2866.201078,False,keypress,prescreenRsp_laglack,1009,[],choice-response,Lag,655e73d1a60ad4b436a1357f,2023-11-22 16:34:02-05:00,Lag,2202,604,EXP9a_PrescreenTrials,PrescreenTrials,5bca6,EXP9a,1,0,8
159,1302,6345b7f49677d36bd07c5a10,EXP9a_FJ,0,5bca64c0bdc6f9f7b18ee34068bbbb9d2ccd2dacc02b22c789f610b57f8480d3,2866.201078,False,keypress,prescreenRsp_fadfat,790,[],choice-response,Fad,655e73d1a60ad4b436a1357f,2023-11-22 16:34:02-05:00,Fad,2171,605,EXP9a_PrescreenTrials,PrescreenTrials,5bca6,EXP9a,1,0,8
160,1303,6345b7f49677d36bd07c5a10,EXP9a_FJ,0,5bca64c0bdc6f9f7b18ee34068bbbb9d2ccd2dacc02b22c789f610b57f8480d3,2866.201078,False,keypress,prescreenRsp_laglack,1160,[],choice-response,Lack,655e73d1a60ad4b436a1357f,2023-11-22 16:34:02-05:00,Lack,2178,606,EXP9a_PrescreenTrials,PrescreenTrials,5bca6,EXP9a,1,1,1
161,1304,6345b7f49677d36bd07c5a10,EXP9a_FJ,0,5bca64c0bdc6f9f7b18ee34068bbbb9d2ccd2dacc02b22c789f610b57f8480d3,2866.201078,False,keypress,prescreenRsp_cabcap,699,[],choice-response,Cab,655e73d1a60ad4b436a1357f,2023-11-22 16:34:02-05:00,Cab,1906,607,EXP9a_PrescreenTrials,PrescreenTrials,5bca6,EXP9a,1,0,8
162,1305,6345b7f49677d36bd07c5a10,EXP9a_FJ,0,5bca64c0bdc6f9f7b18ee34068bbbb9d2ccd2dacc02b22c789f610b57f8480d3,2866.201078,False,keypress,prescreenRsp_fadfat,1458,[],choice-response,Fat,655e73d1a60ad4b436a1357f,2023-11-22 16:34:02-05:00,Fat,2665,608,EXP9a_PrescreenTrials,PrescreenTrials,5bca6,EXP9a,1,1,1
163,1306,6345b7f49677d36bd07c5a10,EXP9a_FJ,0,5bca64c0bdc6f9f7b18ee34068bbbb9d2ccd2dacc02b22c789f610b57f8480d3,2866.201078,False,keypress,prescreenRsp_lablap,1744,[],choice-response,Lap,655e73d1a60ad4b436a1357f,2023-11-22 16:34:02-05:00,Lap,2864,609,EXP9a_PrescreenTrials,PrescreenTrials,5bca6,EXP9a,1,1,1
164,1307,6345b7f49677d36bd07c5a10,EXP9a_FJ,0,5bca64c0bdc6f9f7b18ee34068bbbb9d2ccd2dacc02b22c789f610b57f8480d3,2866.201078,False,keypress,prescreenRsp_beadbeat,984,[],choice-response,Bead,655e73d1a60ad4b436a1357f,2023-11-22 16:34:02-05:00,Bead,2196,610,EXP9a_PrescreenTrials,PrescreenTrials,5bca6,EXP9a,1,0,8
165,1308,6345b7f49677d36bd07c5a10,EXP9a_FJ,0,5bca64c0bdc6f9f7b18ee34068bbbb9d2ccd2dacc02b22c789f610b57f8480d3,2866.201078,False,keypress,prescreenRsp_beadbeat,1360,[],choice-response,Beat,655e73d1a60ad4b436a1357f,2023-11-22 16:34:02-05:00,Beat,2398,611,EXP9a_PrescreenTrials,PrescreenTrials,5bca6,EXP9a,1,1,1
166,1309,6345b7f49677d36bd07c5a10,EXP9a_FJ,0,5bca64c0bdc6f9f7b18ee34068bbbb9d2ccd2dacc02b22c789f610b57f8480d3,2866.201078,False,keypress,prescreenRsp_cabcap,1205,[],choice-response,Cap,655e73d1a60ad4b436a1357f,2023-11-22 16:34:02-05:00,Cap,2236,612,EXP9a_PrescreenTrials,PrescreenTrials,5bca6,EXP9a,1,1,1
167,1310,6345b7f49677d36bd07c5a10,EXP9a_FJ,0,5bca64c0bdc6f9f7b18ee34068bbbb9d2ccd2dacc02b22c789f610b57f8480d3,2866.201078,False,keypress,prescreenRsp_bagback,799,[],choice-response,Bag,655e73d1a60ad4b436a1357f,2023-11-22 16:34:02-05:00,Bag,2013,613,EXP9a_PrescreenTrials,PrescreenTrials,5bca6,EXP9a,1,0,8
168,1311,6345b7f49677d36bd07c5a10,EXP9a_FJ,0,5bca64c0bdc6f9f7b18ee34068bbbb9d2ccd2dacc02b22c789f610b57f8480d3,2866.201078,False,keypress,prescreenRsp_cabcap,934,[],choice-response,Cap,655e73d1a60ad4b436a1357f,2023-11-22 16:34:02-05:00,Cap,1952,614,EXP9a_PrescreenTrials,PrescreenTrials,5bca6,EXP9a,1,1,1
169,1312,6345b7f49677d36bd07c5a10,EXP9a_FJ,0,5bca64c0bdc6f9f7b18ee34068bbbb9d2ccd2dacc02b22c789f610b57f8480d3,2866.201078,False,keypress,prescreenRsp_beadbeat,777,[],choice-response,Bead,655e73d1a60ad4b436a1357f,2023-11-22 16:34:02-05:00,Bead,1963,615,EXP9a_PrescreenTrials,PrescreenTrials,5bca6,EXP9a,1,0,8
170,1313,6345b7f49677d36bd07c5a10,EXP9a_FJ,0,5bca64c0bdc6f9f7b18ee34068bbbb9d2ccd2dacc02b22c789f610b57f8480d3,2866.201078,False,keypress,prescreenRsp_bagback,894,[],choice-response,Back,655e73d1a60ad4b436a1357f,2023-11-22 16:34:02-05:00,Back,1912,616,EXP9a_PrescreenTrials,PrescreenTrials,5bca6,EXP9a,1,1,1
171,1314,6345b7f49677d36bd07c5a10,EXP9a_FJ,0,5bca64c0bdc6f9f7b18ee34068bbbb9d2ccd2dacc02b22c789f610b57f8480d3,2866.201078,False,keypress,prescreenRsp_laglack,1045,[],choice-response,Lag,655e73d1a60ad4b436a1357f,2023-11-22 16:34:02-05:00,Lag,2257,617,EXP9a_PrescreenTrials,PrescreenTrials,5bca6,EXP9a,1,0,8
172,1315,6345b7f49677d36bd07c5a10,EXP9a_FJ,0,5bca64c0bdc6f9f7b18ee34068bbbb9d2ccd2dacc02b22c789f610b57f8480d3,2866.201078,False,keypress,prescreenRsp_fadfat,1186,[],choice-response,Fat,655e73d1a60ad4b436a1357f,2023-11-22 16:34:02-05:00,Fat,2390,618,EXP9a_PrescreenTrials,PrescreenTrials,5bca6,EXP9a,1,1,1
173,1316,6345b7f49677d36bd07c5a10,EXP9a_FJ,0,5bca64c0bdc6f9f7b18ee34068bbbb9d2ccd2dacc02b22c789f610b57f8480d3,2866.201078,False,keypress,prescreenRsp_fadfat,794,[],choice-response,Fad,655e73d1a60ad4b436a1357f,2023-11-22 16:34:02-05:00,Fad,2187,619,EXP9a_PrescreenTrials,PrescreenTrials,5bca6,EXP9a,1,0,8
174,1317,6345b7f49677d36bd07c5a10,EXP9a_FJ,0,5bca64c0bdc6f9f7b18ee34068bbbb9d2ccd2dacc02b22c789f610b57f8480d3,2866.201078,False,keypress,prescreenRsp_cabcap,1365,[],choice-response,Cab,655e73d1a60ad4b436a1357f,2023-11-22 16:34:02-05:00,Cab,2580,620,EXP9a_PrescreenTrials,PrescreenTrials,5bca6,EXP9a,1,0,8
175,1318,6345b7f49677d36bd07c5a10,EXP9a_FJ,0,5bca64c0bdc6f9f7b18ee34068bbbb9d2ccd2dacc02b22c789f610b57f8480d3,2866.201078,False,keypress,prescreenRsp_lablap,1533,[],choice-response,Lab,655e73d1a60ad4b436a1357f,2023-11-22 16:34:02-05:00,Lab,2746,621,EXP9a_PrescreenTrials,PrescreenTrials,5bca6,EXP9a,1,0,8
176,1319,6345b7f49677d36bd07c5a10,EXP9a_FJ,0,5bca64c0bdc6f9f7b18ee34068bbbb9d2ccd2dacc02b22c789f610b57f8480d3,2866.201078,False,keypress,prescreenRsp_beadbeat,979,[],choice-response,Beat,655e73d1a60ad4b436a1357f,2023-11-22 16:34:02-05:00,Beat,2110,622,EXP9a_PrescreenTrials,PrescreenTrials,5bca6,EXP9a,1,1,1
177,1320,6345b7f49677d36bd07c5a10,EXP9a_FJ,0,5bca64c0bdc6f9f7b18ee34068bbbb9d2ccd2dacc02b22c789f610b57f8480d3,2866.201078,False,keypress,prescreenRsp_laglack,779,[],choice-response,Lack,655e73d1a60ad4b436a1357f,2023-11-22 16:34:02-05:00,Lack,1803,623,EXP9a_PrescreenTrials,PrescreenTrials,5bca6,EXP9a,1,1,1
178,1321,6345b7f49677d36bd07c5a10,EXP9a_FJ,0,5bca64c0bdc6f9f7b18ee34068bbbb9d2ccd2dacc02b22c789f610b57f8480d3,2866.201078,False,keypress,prescreenRsp_bagback,999,[],choice-response,Bag,655e73d1a60ad4b436a1357f,2023-11-22 16:34:02-05:00,Bag,2196,624,EXP9a_PrescreenTrials,PrescreenTrials,5bca6,EXP9a,1,0,8
179,1322,6345b7f49677d36bd07c5a10,EXP9a_FJ,0,5bca64c0bdc6f9f7b18ee34068bbbb9d2ccd2dacc02b22c789f610b57f8480d3,2866.201078,False,keypress,prescreenRsp_lablap,1136,[],choice-response,Lap,655e73d1a60ad4b436a1357f,2023-11-22 16:34:02-05:00,Lap,2166,625,EXP9a_PrescreenTrials,PrescreenTrials,5bca6,EXP9a,1,1,1
180,1323,6345b7f49677d36bd07c5a10,EXP9a_FJ,0,5bca64c0bdc6f9f7b18ee34068bbbb9d2ccd2dacc02b22c789f610b57f8480d3,2866.201078,False,keypress,prescreenRsp_beadbeat,671,[],choice-response,Bead,655e73d1a60ad4b436a1357f,2023-11-22 16:34:02-05:00,Bead,1881,626,EXP9a_PrescreenTrials,PrescreenTrials,5bca6,EXP9a,1,0,8
181,1324,6345b7f49677d36bd07c5a10,EXP9a_FJ,0,5bca64c0bdc6f9f7b18ee34068bbbb9d2ccd2dacc02b22c789f610b57f8480d3,2866.201078,False,keypress,prescreenRsp_cabcap,946,[],choice-response,Cab,655e73d1a60ad4b436a1357f,2023-11-22 16:34:02-05:00,Cab,2150,627,EXP9a_PrescreenTrials,PrescreenTrials,5bca6,EXP9a,1,0,8
182,1325,6345b7f49677d36bd07c5a10,EXP9a_FJ,0,5bca64c0bdc6f9f7b18ee34068bbbb9d2ccd2dacc02b22c789f610b57f8480d3,2866.201078,False,keypress,prescreenRsp_bagback,1054,[],choice-response,Back,655e73d1a60ad4b436a1357f,2023-11-22 16:34:02-05:00,Back,1983,628,EXP9a_PrescreenTrials,PrescreenTrials,5bca6,EXP9a,1,1,1
183,1326,6345b7f49677d36bd07c5a10,EXP9a_FJ,0,5bca64c0bdc6f9f7b18ee34068bbbb9d2ccd2dacc02b22c789f610b57f8480d3,2866.201078,False,keypress,prescreenRsp_fadfat,848,[],choice-response,Fad,655e73d1a60ad4b436a1357f,2023-11-22 16:34:02-05:00,Fad,2236,629,EXP9a_PrescreenTrials,PrescreenTrials,5bca6,EXP9a,1,0,8
184,1327,6345b7f49677d36bd07c5a10,EXP9a_FJ,0,5bca64c0bdc6f9f7b18ee34068bbbb9d2ccd2dacc02b22c789f610b57f8480d3,2866.201078,False,keypress,prescreenRsp_laglack,650,[],choice-response,Lack,655e73d1a60ad4b436a1357f,2023-11-22 16:34:02-05:00,Lack,1779,630,EXP9a_PrescreenTrials,PrescreenTrials,5bca6,EXP9a,1,1,1
185,1328,6345b7f49677d36bd07c5a10,EXP9a_FJ,0,5bca64c0bdc6f9f7b18ee34068bbbb9d2ccd2dacc02b22c789f610b57f8480d3,2866.201078,False,keypress,prescreenRsp_laglack,1347,[],choice-response,Lag,655e73d1a60ad4b436a1357f,2023-11-22 16:34:02-05:00,Lag,2559,631,EXP9a_PrescreenTrials,PrescreenTrials,5bca6,EXP9a,1,0,8
186,1329,6345b7f49677d36bd07c5a10,EXP9a_FJ,0,5bca64c0bdc6f9f7b18ee34068bbbb9d2ccd2dacc02b22c789f610b57f8480d3,2866.201078,False,keypress,prescreenRsp_fadfat,549,[],choice-response,Fat,655e73d1a60ad4b436a1357f,2023-11-22 16:34:02-05:00,Fat,1766,632,EXP9a_PrescreenTrials,PrescreenTrials,5bca6,EXP9a,1,1,1
187,1330,6345b7f49677d36bd07c5a10,EXP9a_FJ,0,5bca64c0bdc6f9f7b18ee34068bbbb9d2ccd2dacc02b22c789f610b57f8480d3,2866.201078,False,keypress,prescreenRsp_beadbeat,1344,[],choice-response,Bead,655e73d1a60ad4b436a1357f,2023-11-22 16:34:02-05:00,Beat,2350,633,EXP9a_PrescreenTrials,PrescreenTrials,5bca6,EXP9a,0,0,1
188,1331,6345b7f49677d36bd07c5a10,EXP9a_FJ,0,5bca64c0bdc6f9f7b18ee34068bbbb9d2ccd2dacc02b22c789f610b57f8480d3,2866.201078,False,keypress,prescreenRsp_bagback,770,[],choice-response,Bag,655e73d1a60ad4b436a1357f,2023-11-22 16:34:02-05:00,Bag,1980,634,EXP9a_PrescreenTrials,PrescreenTrials,5bca6,EXP9a,1,0,8
189,1332,6345b7f49677d36bd07c5a10,EXP9a_FJ,0,5bca64c0bdc6f9f7b18ee34068bbbb9d2ccd2dacc02b22c789f610b57f8480d3,2866.201078,False,keypress,prescreenRsp_lablap,1044,[],choice-response,Lap,655e73d1a60ad4b436a1357f,2023-11-22 16:34:02-05:00,Lab,2261,635,EXP9a_PrescreenTrials,PrescreenTrials,5bca6,EXP9a,0,1,8
190,1333,6345b7f49677d36bd07c5a10,EXP9a_FJ,0,5bca64c0bdc6f9f7b18ee34068bbbb9d2ccd2dacc02b22c789f610b57f8480d3,2866.201078,False,keypress,prescreenRsp_lablap,1051,[],choice-response,Lap,655e73d1a60ad4b436a1357f,2023-11-22 16:34:02-05:00,Lap,2144,636,EXP9a_PrescreenTrials,PrescreenTrials,5bca6,EXP9a,1,1,1
191,1334,6345b7f49677d36bd07c5a10,EXP9a_FJ,0,5bca64c0bdc6f9f7b18ee34068bbbb9d2ccd2dacc02b22c789f610b57f8480d3,2866.201078,False,keypress,prescreenRsp_cabcap,722,[],choice-response,Cap,655e73d1a60ad4b436a1357f,2023-11-22 16:34:02-05:00,Cap,1746,637,EXP9a_PrescreenTrials,PrescreenTrials,5bca6,EXP9a,1,1,1
192,1335,6345b7f49677d36bd07c5a10,EXP9a_FJ,0,5bca64c0bdc6f9f7b18ee34068bbbb9d2ccd2dacc02b22c789f610b57f8480d3,2866.201078,False,keypress,prescreenRsp_laglack,920,[],choice-response,Lack,655e73d1a60ad4b436a1357f,2023-11-22 16:34:02-05:00,Lack,1943,638,EXP9a_PrescreenTrials,PrescreenTrials,5bca6,EXP9a,1,1,1
193,1336,6345b7f49677d36bd07c5a10,EXP9a_FJ,0,5bca64c0bdc6f9f7b18ee34068bbbb9d2ccd2dacc02b22c789f610b57f8480d3,2866.201078,False,keypress,prescreenRsp_fadfat,896,[],choice-response,Fad,655e73d1a60ad4b436a1357f,2023-11-22 16:34:02-05:00,Fat,2109,639,EXP9a_PrescreenTrials,PrescreenTrials,5bca6,EXP9a,0,0,1
194,1337,6345b7f49677d36bd07c5a10,EXP9a_FJ,0,5bca64c0bdc6f9f7b18ee34068bbbb9d2ccd2dacc02b22c789f610b57f8480d3,2866.201078,False,keypress,prescreenRsp_beadbeat,845,[],choice-response,Bead,655e73d1a60ad4b436a1357f,2023-11-22 16:34:02-05:00,Bead,2063,640,EXP9a_PrescreenTrials,PrescreenTrials,5bca6,EXP9a,1,0,8
195,1338,6345b7f49677d36bd07c5a10,EXP9a_FJ,0,5bca64c0bdc6f9f7b18ee34068bbbb9d2ccd2dacc02b22c789f610b57f8480d3,2866.201078,False,keypress,prescreenRsp_cabcap,636,[],choice-response,Cap,655e73d1a60ad4b436a1357f,2023-11-22 16:34:02-05:00,Cap,1645,641,EXP9a_PrescreenTrials,PrescreenTrials,5bca6,EXP9a,1,1,1
196,1339,6345b7f49677d36bd07c5a10,EXP9a_FJ,0,5bca64c0bdc6f9f7b18ee34068bbbb9d2ccd2dacc02b22c789f610b57f8480d3,2866.201078,False,keypress,prescreenRsp_laglack,791,[],choice-response,Lag,655e73d1a60ad4b436a1357f,2023-11-22 16:34:02-05:00,Lag,2006,642,EXP9a_PrescreenTrials,PrescreenTrials,5bca6,EXP9a,1,0,8
197,1340,6345b7f49677d36bd07c5a10,EXP9a_FJ,0,5bca64c0bdc6f9f7b18ee34068bbbb9d2ccd2dacc02b22c789f610b57f8480d3,2866.201078,False,keypress,prescreenRsp_lablap,885,[],choice-response,Lab,655e73d1a60ad4b436a1357f,2023-11-22 16:34:02-05:00,Lab,2100,643,EXP9a_PrescreenTrials,PrescreenTrials,5bca6,EXP9a,1,0,8
198,1341,6345b7f49677d36bd07c5a10,EXP9a_FJ,0,5bca64c0bdc6f9f7b18ee34068bbbb9d2ccd2dacc02b22c789f610b57f8480d3,2866.201078,False,keypress,prescreenRsp_fadfat,512,[],choice-response,Fat,655e73d1a60ad4b436a1357f,2023-11-22 16:34:02-05:00,Fad,1904,644,EXP9a_PrescreenTrials,PrescreenTrials,5bca6,EXP9a,0,1,8
199,1342,6345b7f49677d36bd07c5a10,EXP9a_FJ,0,5bca64c0bdc6f9f7b18ee34068bbbb9d2ccd2dacc02b22c789f610b57f8480d3,2866.201078,False,keypress,prescreenRsp_lablap,926,[],choice-response,Lap,655e73d1a60ad4b436a1357f,2023-11-22 16:34:02-05:00,Lap,1953,645,EXP9a_PrescreenTrials,PrescreenTrials,5bca6,EXP9a,1,1,1
200,1343,6345b7f49677d36bd07c5a10,EXP9a_FJ,0,5bca64c0bdc6f9f7b18ee34068bbbb9d2ccd2dacc02b22c789f610b57f8480d3,2866.201078,False,keypress,prescreenRsp_bagback,1058,[],choice-response,Back,655e73d1a60ad4b436a1357f,2023-11-22 16:34:02-05:00,Back,1995,646,EXP9a_PrescreenTrials,PrescreenTrials,5bca6,EXP9a,1,1,1
201,1344,6345b7f49677d36bd07c5a10,EXP9a_FJ,0,5bca64c0bdc6f9f7b18ee34068bbbb9d2ccd2dacc02b22c789f610b57f8480d3,2866.201078,False,keypress,prescreenRsp_beadbeat,673,[],choice-response,Bead,655e73d1a60ad4b436a1357f,2023-11-22 16:34:02-05:00,Beat,1701,647,EXP9a_PrescreenTrials,PrescreenTrials,5bca6,EXP9a,0,0,1
202,1345,6345b7f49677d36bd07c5a10,EXP9a_FJ,0,5bca64c0bdc6f9f7b18ee34068bbbb9d2ccd2dacc02b22c789f610b57f8480d3,2866.201078,False,keypress,prescreenRsp_bagback,808,[],choice-response,Bag,655e73d1a60ad4b436a1357f,2023-11-22 16:34:02-05:00,Bag,2013,648,EXP9a_PrescreenTrials,PrescreenTrials,5bca6,EXP9a,1,0,8
203,1346,6345b7f49677d36bd07c5a10,EXP9a_FJ,0,5bca64c0bdc6f9f7b18ee34068bbbb9d2ccd2dacc02b22c789f610b57f8480d3,2866.201078,False,keypress,prescreenRsp_cabcap,951,[],choice-response,Cab,655e73d1a60ad4b436a1357f,2023-11-22 16:34:02-05:00,Cab,2159,649,EXP9a_PrescreenTrials,PrescreenTrials,5bca6,EXP9a,1,0,8
204,1347,6345b7f49677d36bd07c5a10,EXP9a_FJ,0,5bca64c0bdc6f9f7b18ee34068bbbb9d2ccd2dacc02b22c789f610b57f8480d3,2866.201078,False,keypress,prescreenRsp_bagback,764,[],choice-response,Back,655e73d1a60ad4b436a1357f,2023-11-22 16:34:02-05:00,Back,1780,650,EXP9a_PrescreenTrials,PrescreenTrials,5bca6,EXP9a,1,1,1
205,1348,6345b7f49677d36bd07c5a10,EXP9a_FJ,0,5bca64c0bdc6f9f7b18ee34068bbbb9d2ccd2dacc02b22c789f610b57f8480d3,2866.201078,False,keypress,prescreenRsp_cabcap,1250,[],choice-response,Cap,655e73d1a60ad4b436a1357f,2023-11-22 16:34:02-05:00,Cap,2269,651,EXP9a_PrescreenTrials,PrescreenTrials,5bca6,EXP9a,1,1,1
206,1349,6345b7f49677d36bd07c5a10,EXP9a_FJ,0,5bca64c0bdc6f9f7b18ee34068bbbb9d2ccd2dacc02b22c789f610b57f8480d3,2866.201078,False,keypress,prescreenRsp_fadfat,814,[],choice-response,Fat,655e73d1a60ad4b436a1357f,2023-11-22 16:34:02-05:00,Fat,2018,652,EXP9a_PrescreenTrials,PrescreenTrials,5bca6,EXP9a,1,1,1
207,1350,6345b7f49677d36bd07c5a10,EXP9a_FJ,0,5bca64c0bdc6f9f7b18ee34068bbbb9d2ccd2dacc02b22c789f610b57f8480d3,2866.201078,False,keypress,prescreenRsp_beadbeat,920,[],choice-response,Beat,655e73d1a60ad4b436a1357f,2023-11-22 16:34:02-05:00,Beat,1939,653,EXP9a_PrescreenTrials,PrescreenTrials,5bca6,EXP9a,1,1,1
208,1351,6345b7f49677d36bd07c5a10,EXP9a_FJ,0,5bca64c0bdc6f9f7b18ee34068bbbb9d2ccd2dacc02b22c789f610b57f8480d3,2866.201078,False,keypress,prescreenRsp_laglack,992,[],choice-response,Lag,655e73d1a60ad4b436a1357f,2023-11-22 16:34:02-05:00,Lag,2198,654,EXP9a_PrescreenTrials,PrescreenTrials,5bca6,EXP9a,1,0,8
209,1352,6345b7f49677d36bd07c5a10,EXP9a_FJ,0,5bca64c0bdc6f9f7b18ee34068bbbb9d2ccd2dacc02b22c789f610b57f8480d3,2866.201078,False,keypress,prescreenRsp_lablap,940,[],choice-response,Lab,655e73d1a60ad4b436a1357f,2023-11-22 16:34:02-05:00,Lab,2145,655,EXP9a_PrescreenTrials,PrescreenTrials,5bca6,EXP9a,1,0,8
210,1353,6345b7f49677d36bd07c5a10,EXP9a_FJ,0,5bca64c0bdc6f9f7b18ee34068bbbb9d2ccd2dacc02b22c789f610b57f8480d3,2866.201078,False,keypress,prescreenRsp_bagback,757,[],choice-response,Bag,655e73d1a60ad4b436a1357f,2023-11-22 16:34:02-05:00,Bag,1950,656,EXP9a_PrescreenTrials,PrescreenTrials,5bca6,EXP9a,1,0,8
211,1354,6345b7f49677d36bd07c5a10,EXP9a_FJ,0,5bca64c0bdc6f9f7b18ee34068bbbb9d2ccd2dacc02b22c789f610b57f8480d3,2866.201078,False,keypress,prescreenRsp_lablap,694,[],choice-response,Lap,655e73d1a60ad4b436a1357f,2023-11-22 16:34:02-05:00,Lap,1715,657,EXP9a_PrescreenTrials,PrescreenTrials,5bca6,EXP9a,1,1,1
212,1355,6345b7f49677d36bd07c5a10,EXP9a_FJ,0,5bca64c0bdc6f9f7b18ee34068bbbb9d2ccd2dacc02b22c789f610b57f8480d3,2866.201078,False,keypress,prescreenRsp_fadfat,852,[],choice-response,Fad,655e73d1a60ad4b436a1357f,2023-11-22 16:34:02-05:00,Fad,2247,658,EXP9a_PrescreenTrials,PrescreenTrials,5bca6,EXP9a,1,0,8
213,1356,6345b7f49677d36bd07c5a10,EXP9a_FJ,0,5bca64c0bdc6f9f7b18ee34068bbbb9d2ccd2dacc02b22c789f610b57f8480d3,2866.201078,False,keypress,prescreenRsp_laglack,816,[],choice-response,Lack,655e73d1a60ad4b436a1357f,2023-11-22 16:34:02-05:00,Lack,1941,659,EXP9a_PrescreenTrials,PrescreenTrials,5bca6,EXP9a,1,1,1
214,1357,6345b7f49677d36bd07c5a10,EXP9a_FJ,0,5bca64c0bdc6f9f7b18ee34068bbbb9d2ccd2dacc02b22c789f610b57f8480d3,2866.201078,False,keypress,prescreenRsp_cabcap,726,[],choice-response,Cab,655e73d1a60ad4b436a1357f,2023-11-22 16:34:02-05:00,Cab,1923,660,EXP9a_PrescreenTrials,PrescreenTrials,5bca6,EXP9a,1,0,8
215,1358,6345b7f49677d36bd07c5a10,EXP9a_FJ,0,5bca64c0bdc6f9f7b18ee34068bbbb9d2ccd2dacc02b22c789f610b57f8480d3,2866.201078,False,keypress,prescreenRsp_beadbeat,1014,[],choice-response,Bead,655e73d1a60ad4b436a1357f,2023-11-22 16:34:02-05:00,Bead,2220,661,EXP9a_PrescreenTrials,PrescreenTrials,5bca6,EXP9a,1,0,8
216,1359,6345b7f49677d36bd07c5a10,EXP9a_FJ,0,5bca64c0bdc6f9f7b18ee34068bbbb9d2ccd2dacc02b22c789f610b57f8480d3,2866.201078,False,keypress,prescreenRsp_laglack,2149,[],choice-response,Lack,655e73d1a60ad4b436a1357f,2023-11-22 16:34:02-05:00,Lack,3166,662,EXP9a_PrescreenTrials,PrescreenTrials,5bca6,EXP9a,1,1,1
217,1360,6345b7f49677d36bd07c5a10,EXP9a_FJ,0,5bca64c0bdc6f9f7b18ee34068bbbb9d2ccd2dacc02b22c789f610b57f8480d3,2866.201078,False,keypress,prescreenRsp_cabcap,1394,[],choice-response,Cab,655e73d1a60ad4b436a1357f,2023-11-22 16:34:02-05:00,Cab,2609,663,EXP9a_PrescreenTrials,PrescreenTrials,5bca6,EXP9a,1,0,8
218,1361,6345b7f49677d36bd07c5a10,EXP9a_FJ,0,5bca64c0bdc6f9f7b18ee34068bbbb9d2ccd2dacc02b22c789f610b57f8480d3,2866.201078,False,keypress,prescreenRsp_lablap,807,[],choice-response,Lab,655e73d1a60ad4b436a1357f,2023-11-22 16:34:02-05:00,Lab,2025,664,EXP9a_PrescreenTrials,PrescreenTrials,5bca6,EXP9a,1,0,8
219,1362,6345b7f49677d36bd07c5a10,EXP9a_FJ,0,5bca64c0bdc6f9f7b18ee34068bbbb9d2ccd2dacc02b22c789f610b57f8480d3,2866.201078,False,keypress,prescreenRsp_bagback,769,[],choice-response,Back,655e73d1a60ad4b436a1357f,2023-11-22 16:34:02-05:00,Back,1794,665,EXP9a_PrescreenTrials,PrescreenTrials,5bca6,EXP9a,1,1,1
220,1363,6345b7f49677d36bd07c5a10,EXP9a_FJ,0,5bca64c0bdc6f9f7b18ee34068bbbb9d2ccd2dacc02b22c789f610b57f8480d3,2866.201078,False,keypress,prescreenRsp_laglack,1211,[],choice-response,Lag,655e73d1a60ad4b436a1357f,2023-11-22 16:34:02-05:00,Lag,2432,666,EXP9a_PrescreenTrials,PrescreenTrials,5bca6,EXP9a,1,0,8
221,1364,6345b7f49677d36bd07c5a10,EXP9a_FJ,0,5bca64c0bdc6f9f7b18ee34068bbbb9d2ccd2dacc02b22c789f610b57f8480d3,2866.201078,False,keypress,prescreenRsp_fadfat,747,[],choice-response,Fad,655e73d1a60ad4b436a1357f,2023-11-22 16:34:02-05:00,Fad,2142,667,EXP9a_PrescreenTrials,PrescreenTrials,5bca6,EXP9a,1,0,8
222,1365,6345b7f49677d36bd07c5a10,EXP9a_FJ,0,5bca64c0bdc6f9f7b18ee34068bbbb9d2ccd2dacc02b22c789f610b57f8480d3,2866.201078,False,keypress,prescreenRsp_fadfat,745,[],choice-response,Fat,655e73d1a60ad4b436a1357f,2023-11-22 16:34:02-05:00,Fat,1962,668,EXP9a_PrescreenTrials,PrescreenTrials,5bca6,EXP9a,1,1,1
223,1366,6345b7f49677d36bd07c5a10,EXP9a_FJ,0,5bca64c0bdc6f9f7b18ee34068bbbb9d2ccd2dacc02b22c789f610b57f8480d3,2866.201078,False,keypress,prescreenRsp_beadbeat,929,[],choice-response,Bead,655e73d1a60ad4b436a1357f,2023-11-22 16:34:02-05:00,Beat,1953,669,EXP9a_PrescreenTrials,PrescreenTrials,5bca6,EXP9a,0,0,1
224,1367,6345b7f49677d36bd07c5a10,EXP9a_FJ,0,5bca64c0bdc6f9f7b18ee34068bbbb9d2ccd2dacc02b22c789f610b57f8480d3,2866.201078,False,keypress,prescreenRsp_lablap,1299,[],choice-response,Lab,655e73d1a60ad4b436a1357f,2023-11-22 16:34:02-05:00,Lap,2329,670,EXP9a_PrescreenTrials,PrescreenTrials,5bca6,EXP9a,0,0,1
225,1368,6345b7f49677d36bd07c5a10,EXP9a_FJ,0,5bca64c0bdc6f9f7b18ee34068bbbb9d2ccd2dacc02b22c789f610b57f8480d3,2866.201078,False,keypress,prescreenRsp_cabcap,972,[],choice-response,Cap,655e73d1a60ad4b436a1357f,2023-11-22 16:34:02-05:00,Cap,1994,671,EXP9a_PrescreenTrials,PrescreenTrials,5bca6,EXP9a,1,1,1
226,1369,6345b7f49677d36bd07c5a10,EXP9a_FJ,0,5bca64c0bdc6f9f7b18ee34068bbbb9d2ccd2dacc02b22c789f610b57f8480d3,2866.201078,False,keypress,prescreenRsp_beadbeat,907,[],choice-response,Bead,655e73d1a60ad4b436a1357f,2023-11-22 16:34:02-05:00,Bead,2113,672,EXP9a_PrescreenTrials,PrescreenTrials,5bca6,EXP9a,1,0,8
227,1370,6345b7f49677d36bd07c5a10,EXP9a_FJ,0,5bca64c0bdc6f9f7b18ee34068bbbb9d2ccd2dacc02b22c789f610b57f8480d3,2866.201078,False,keypress,prescreenRsp_bagback,958,[],choice-response,Bag,655e73d1a60ad4b436a1357f,2023-11-22 16:34:02-05:00,Bag,2166,673,EXP9a_PrescreenTrials,PrescreenTrials,5bca6,EXP9a,1,0,8
228,1371,6345b7f49677d36bd07c5a10,EXP9a_FJ,0,5bca64c0bdc6f9f7b18ee34068bbbb9d2ccd2dacc02b22c789f610b57f8480d3,2866.201078,False,keypress,prescreenRsp_fadfat,896,[],choice-response,Fat,655e73d1a60ad4b436a1357f,2023-11-22 16:34:02-05:00,Fat,2102,674,EXP9a_PrescreenTrials,PrescreenTrials,5bca6,EXP9a,1,1,1
229,1372,6345b7f49677d36bd07c5a10,EXP9a_FJ,0,5bca64c0bdc6f9f7b18ee34068bbbb9d2ccd2dacc02b22c789f610b57f8480d3,2866.201078,False,keypress,prescreenRsp_lablap,1272,[],choice-response,Lab,655e73d1a60ad4b436a1357f,2023-11-22 16:34:02-05:00,Lap,2278,675,EXP9a_PrescreenTrials,PrescreenTrials,5bca6,EXP9a,0,0,1
230,1373,6345b7f49677d36bd07c5a10,EXP9a_FJ,0,5bca64c0bdc6f9f7b18ee34068bbbb9d2ccd2dacc02b22c789f610b57f8480d3,2866.201078,False,keypress,prescreenRsp_cabcap,1763,[],choice-response,Cab,655e73d1a60ad4b436a1357f,2023-11-22 16:34:02-05:00,Cab,3002,676,EXP9a_PrescreenTrials,PrescreenTrials,5bca6,EXP9a,1,0,8
231,1374,6345b7f49677d36bd07c5a10,EXP9a_FJ,0,5bca64c0bdc6f9f7b18ee34068bbbb9d2ccd2dacc02b22c789f610b57f8480d3,2866.201078,False,keypress,prescreenRsp_fadfat,735,[],choice-response,Fad,655e73d1a60ad4b436a1357f,2023-11-22 16:34:02-05:00,Fad,2231,677,EXP9a_PrescreenTrials,PrescreenTrials,5bca6,EXP9a,1,0,8
232,1375,6345b7f49677d36bd07c5a10,EXP9a_FJ,0,5bca64c0bdc6f9f7b18ee34068bbbb9d2ccd2dacc02b22c789f610b57f8480d3,2866.201078,False,keypress,prescreenRsp_beadbeat,868,[],choice-response,Bead,655e73d1a60ad4b436a1357f,2023-11-22 16:34:02-05:00,Bead,2083,678,EXP9a_PrescreenTrials,PrescreenTrials,5bca6,EXP9a,1,0,8
233,1376,6345b7f49677d36bd07c5a10,EXP9a_FJ,0,5bca64c0bdc6f9f7b18ee34068bbbb9d2ccd2dacc02b22c789f610b57f8480d3,2866.201078,False,keypress,prescreenRsp_lablap,827,[],choice-response,Lab,655e73d1a60ad4b436a1357f,2023-11-22 16:34:02-05:00,Lab,2048,679,EXP9a_PrescreenTrials,PrescreenTrials,5bca6,EXP9a,1,0,8
234,1377,6345b7f49677d36bd07c5a10,EXP9a_FJ,0,5bca64c0bdc6f9f7b18ee34068bbbb9d2ccd2dacc02b22c789f610b57f8480d3,2866.201078,False,keypress,prescreenRsp_bagback,1170,[],choice-response,Back,655e73d1a60ad4b436a1357f,2023-11-22 16:34:02-05:00,Back,2190,680,EXP9a_PrescreenTrials,PrescreenTrials,5bca6,EXP9a,1,1,1
235,1378,6345b7f49677d36bd07c5a10,EXP9a_FJ,0,5bca64c0bdc6f9f7b18ee34068bbbb9d2ccd2dacc02b22c789f610b57f8480d3,2866.201078,False,keypress,prescreenRsp_laglack,1141,[],choice-response,Lag,655e73d1a60ad4b436a1357f,2023-11-22 16:34:02-05:00,Lag,2363,681,EXP9a_PrescreenTrials,PrescreenTrials,5bca6,EXP9a,1,0,8
236,1379,6345b7f49677d36bd07c5a10,EXP9a_FJ,0,5bca64c0bdc6f9f7b18ee34068bbbb9d2ccd2dacc02b22c789f610b57f8480d3,2866.201078,False,keypress,prescreenRsp_bagback,1010,[],choice-response,Bag,655e73d1a60ad4b436a1357f,2023-11-22 16:34:02-05:00,Bag,2223,682,EXP9a_PrescreenTrials,PrescreenTrials,5bca6,EXP9a,1,0,8
237,1380,6345b7f49677d36bd07c5a10,EXP9a_FJ,0,5bca64c0bdc6f9f7b18ee34068bbbb9d2ccd2dacc02b22c789f610b57f8480d3,2866.201078,False,keypress,prescreenRsp_laglack,1302,[],choice-response,Lack,655e73d1a60ad4b436a1357f,2023-11-22 16:34:02-05:00,Lack,2326,683,EXP9a_PrescreenTrials,PrescreenTrials,5bca6,EXP9a,1,1,1
238,1381,6345b7f49677d36bd07c5a10,EXP9a_FJ,0,5bca64c0bdc6f9f7b18ee34068bbbb9d2ccd2dacc02b22c789f610b57f8480d3,2866.201078,False,keypress,prescreenRsp_cabcap,780,[],choice-response,Cap,655e73d1a60ad4b436a1357f,2023-11-22 16:34:02-05:00,Cap,1805,684,EXP9a_PrescreenTrials,PrescreenTrials,5bca6,EXP9a,1,1,1
239,1382,6345b7f49677d36bd07c5a10,EXP9a_FJ,0,5bca64c0bdc6f9f7b18ee34068bbbb9d2ccd2dacc02b22c789f610b57f8480d3,2866.201078,False,keypress,prescreenRsp_beadbeat,1229,[],choice-response,Beat,655e73d1a60ad4b436a1357f,2023-11-22 16:34:02-05:00,Beat,2256,685,EXP9a_PrescreenTrials,PrescreenTrials,5bca6,EXP9a,1,1,1
240,1961,6345b7f49677d36bd07c5a10,EXP9a_JF,0,e017104407282d18ad3a61455bf0dc04720c5958036cc74c8a53efd38bb9ae00,3284.410497,False,keypress,prescreenRsp_bagback_rv,2313,[],choice-response,Bag,655e73d1a60ad4b436a1357f,2023-11-22 16:34:02-05:00,Bag,3792,566,EXP9a_PrescreenTrials_rv,PrescreenTrials,e0171,EXP9a,1,0,8
241,1962,6345b7f49677d36bd07c5a10,EXP9a_JF,0,e017104407282d18ad3a61455bf0dc04720c5958036cc74c8a53efd38bb9ae00,3284.410497,False,keypress,prescreenRsp_bagback_rv,2144,[],choice-response,Back,655e73d1a60ad4b436a1357f,2023-11-22 16:34:02-05:00,Back,3297,567,EXP9a_PrescreenTrials_rv,PrescreenTrials,e0171,EXP9a,1,1,1
242,1963,6345b7f49677d36bd07c5a10,EXP9a_JF,0,e017104407282d18ad3a61455bf0dc04720c5958036cc74c8a53efd38bb9ae00,3284.410497,False,keypress,prescreenRsp_laglack_rv,4167,[],choice-response,Lack,655e73d1a60ad4b436a1357f,2023-11-22 16:34:02-05:00,Lag,5747,568,EXP9a_PrescreenTrials_rv,PrescreenTrials,e0171,EXP9a,0,1,8
243,1964,6345b7f49677d36bd07c5a10,EXP9a_JF,0,e017104407282d18ad3a61455bf0dc04720c5958036cc74c8a53efd38bb9ae00,3284.410497,False,keypress,prescreenRsp_beadbeat_rv,2239,[],choice-response,Bead,655e73d1a60ad4b436a1357f,2023-11-22 16:34:02-05:00,Bead,3481,569,EXP9a_PrescreenTrials_rv,PrescreenTrials,e0171,EXP9a,1,0,8
244,1965,6345b7f49677d36bd07c5a10,EXP9a_JF,0,e017104407282d18ad3a61455bf0dc04720c5958036cc74c8a53efd38bb9ae00,3284.410497,False,keypress,prescreenRsp_lablap_rv,2028,[],choice-response,Lab,655e73d1a60ad4b436a1357f,2023-11-22 16:34:02-05:00,Lab,3369,570,EXP9a_PrescreenTrials_rv,PrescreenTrials,e0171,EXP9a,1,0,8
245,1966,6345b7f49677d36bd07c5a10,EXP9a_JF,0,e017104407282d18ad3a61455bf0dc04720c5958036cc74c8a53efd38bb9ae00,3284.410497,False,keypress,prescreenRsp_cabcap_rv,1945,[],choice-response,Cab,655e73d1a60ad4b436a1357f,2023-11-22 16:34:02-05:00,Cab,3101,571,EXP9a_PrescreenTrials_rv,PrescreenTrials,e0171,EXP9a,1,0,8
246,1967,6345b7f49677d36bd07c5a10,EXP9a_JF,0,e017104407282d18ad3a61455bf0dc04720c5958036cc74c8a53efd38bb9ae00,3284.410497,False,keypress,prescreenRsp_laglack_rv,3211,[],choice-response,Lack,655e73d1a60ad4b436a1357f,2023-11-22 16:34:02-05:00,Lack,4388,572,EXP9a_PrescreenTrials_rv,PrescreenTrials,e0171,EXP9a,1,1,1
247,1968,6345b7f49677d36bd07c5a10,EXP9a_JF,0,e017104407282d18ad3a61455bf0dc04720c5958036cc74c8a53efd38bb9ae00,3284.410497,False,keypress,prescreenRsp_beadbeat_rv,4921,[],choice-response,Bead,655e73d1a60ad4b436a1357f,2023-11-22 16:34:02-05:00,Beat,6000,573,EXP9a_PrescreenTrials_rv,PrescreenTrials,e0171,EXP9a,0,0,1
248,1969,6345b7f49677d36bd07c5a10,EXP9a_JF,0,e017104407282d18ad3a61455bf0dc04720c5958036cc74c8a53efd38bb9ae00,3284.410497,False,keypress,prescreenRsp_fadfat_rv,2767,[],choice-response,Fat,655e73d1a60ad4b436a1357f,2023-11-22 16:34:02-05:00,Fat,3912,574,EXP9a_PrescreenTrials_rv,PrescreenTrials,e0171,EXP9a,1,1,1
249,1970,6345b7f49677d36bd07c5a10,EXP9a_JF,0,e017104407282d18ad3a61455bf0dc04720c5958036cc74c8a53efd38bb9ae00,3284.410497,False,keypress,prescreenRsp_cabcap_rv,1698,[],choice-response,Cap,655e73d1a60ad4b436a1357f,2023-11-22 16:34:02-05:00,Cap,2898,575,EXP9a_PrescreenTrials_rv,PrescreenTrials,e0171,EXP9a,1,1,1
250,1971,6345b7f49677d36bd07c5a10,EXP9a_JF,0,e017104407282d18ad3a61455bf0dc04720c5958036cc74c8a53efd38bb9ae00,3284.410497,False,keypress,prescreenRsp_lablap_rv,2274,[],choice-response,Lap,655e73d1a60ad4b436a1357f,2023-11-22 16:34:02-05:00,Lap,3360,576,EXP9a_PrescreenTrials_rv,PrescreenTrials,e0171,EXP9a,1,1,1
251,1972,6345b7f49677d36bd07c5a10,EXP9a_JF,0,e017104407282d18ad3a61455bf0dc04720c5958036cc74c8a53efd38bb9ae00,3284.410497,False,keypress,prescreenRsp_fadfat_rv,1310,[],choice-response,Fad,655e73d1a60ad4b436a1357f,2023-11-22 16:34:02-05:00,Fad,2827,577,EXP9a_PrescreenTrials_rv,PrescreenTrials,e0171,EXP9a,1,0,8
252,1973,6345b7f49677d36bd07c5a10,EXP9a_JF,0,e017104407282d18ad3a61455bf0dc04720c5958036cc74c8a53efd38bb9ae00,3284.410497,False,keypress,prescreenRsp_lablap_rv,3532,[],choice-response,Lab,655e73d1a60ad4b436a1357f,2023-11-22 16:34:02-05:00,Lap,4185,578,EXP9a_PrescreenTrials_rv,PrescreenTrials,e0171,EXP9a,0,0,1
253,1974,6345b7f49677d36bd07c5a10,EXP9a_JF,0,e017104407282d18ad3a61455bf0dc04720c5958036cc74c8a53efd38bb9ae00,3284.410497,False,keypress,prescreenRsp_cabcap_rv,2484,[],choice-response,Cap,655e73d1a60ad4b436a1357f,2023-11-22 16:34:02-05:00,Cap,3141,579,EXP9a_PrescreenTrials_rv,PrescreenTrials,e0171,EXP9a,1,1,1
254,1975,6345b7f49677d36bd07c5a10,EXP9a_JF,0,e017104407282d18ad3a61455bf0dc04720c5958036cc74c8a53efd38bb9ae00,3284.410497,False,keypress,prescreenRsp_laglack_rv,1428,[],choice-response,Lag,655e73d1a60ad4b436a1357f,2023-11-22 16:34:02-05:00,Lag,2290,580,EXP9a_PrescreenTrials_rv,PrescreenTrials,e0171,EXP9a,1,0,8
255,1976,6345b7f49677d36bd07c5a10,EXP9a_JF,0,e017104407282d18ad3a61455bf0dc04720c5958036cc74c8a53efd38bb9ae00,3284.410497,False,keypress,prescreenRsp_laglack_rv,2468,[],choice-response,Lack,655e73d1a60ad4b436a1357f,2023-11-22 16:34:02-05:00,Lack,3126,581,EXP9a_PrescreenTrials_rv,PrescreenTrials,e0171,EXP9a,1,1,1
256,1977,6345b7f49677d36bd07c5a10,EXP9a_JF,0,e017104407282d18ad3a61455bf0dc04720c5958036cc74c8a53efd38bb9ae00,3284.410497,False,keypress,prescreenRsp_cabcap_rv,1720,[],choice-response,Cab,655e73d1a60ad4b436a1357f,2023-11-22 16:34:02-05:00,Cab,2562,582,EXP9a_PrescreenTrials_rv,PrescreenTrials,e0171,EXP9a,1,0,8
257,1978,6345b7f49677d36bd07c5a10,EXP9a_JF,0,e017104407282d18ad3a61455bf0dc04720c5958036cc74c8a53efd38bb9ae00,3284.410497,False,keypress,prescreenRsp_bagback_rv,1293,[],choice-response,Back,655e73d1a60ad4b436a1357f,2023-11-22 16:34:02-05:00,Back,1925,583,EXP9a_PrescreenTrials_rv,PrescreenTrials,e0171,EXP9a,1,1,1
258,1979,6345b7f49677d36bd07c5a10,EXP9a_JF,0,e017104407282d18ad3a61455bf0dc04720c5958036cc74c8a53efd38bb9ae00,3284.410497,False,keypress,prescreenRsp_beadbeat_rv,2270,[],choice-response,Bead,655e73d1a60ad4b436a1357f,2023-11-22 16:34:02-05:00,Bead,3133,584,EXP9a_PrescreenTrials_rv,PrescreenTrials,e0171,EXP9a,1,0,8
259,1980,6345b7f49677d36bd07c5a10,EXP9a_JF,0,e017104407282d18ad3a61455bf0dc04720c5958036cc74c8a53efd38bb9ae00,3284.410497,False,keypress,prescreenRsp_lablap_rv,5169,[],choice-response,Lab,655e73d1a60ad4b436a1357f,2023-11-22 16:34:02-05:00,Lab,6034,585,EXP9a_PrescreenTrials_rv,PrescreenTrials,e0171,EXP9a,1,0,8
260,1981,6345b7f49677d36bd07c5a10,EXP9a_JF,0,e017104407282d18ad3a61455bf0dc04720c5958036cc74c8a53efd38bb9ae00,3284.410497,False,keypress,prescreenRsp_bagback_rv,3091,[],choice-response,Bag,655e73d1a60ad4b436a1357f,2023-11-22 16:34:02-05:00,Bag,3932,586,EXP9a_PrescreenTrials_rv,PrescreenTrials,e0171,EXP9a,1,0,8
261,1982,6345b7f49677d36bd07c5a10,EXP9a_JF,0,e017104407282d18ad3a61455bf0dc04720c5958036cc74c8a53efd38bb9ae00,3284.410497,False,keypress,prescreenRsp_beadbeat_rv,4487,[],choice-response,Bead,655e73d1a60ad4b436a1357f,2023-11-22 16:34:02-05:00,Beat,5168,587,EXP9a_PrescreenTrials_rv,PrescreenTrials,e0171,EXP9a,0,0,1
262,1983,6345b7f49677d36bd07c5a10,EXP9a_JF,0,e017104407282d18ad3a61455bf0dc04720c5958036cc74c8a53efd38bb9ae00,3284.410497,False,keypress,prescreenRsp_fadfat_rv,2096,[],choice-response,Fat,655e73d1a60ad4b436a1357f,2023-11-22 16:34:02-05:00,Fat,2941,588,EXP9a_PrescreenTrials_rv,PrescreenTrials,e0171,EXP9a,1,1,1
263,1984,6345b7f49677d36bd07c5a10,EXP9a_JF,0,e017104407282d18ad3a61455bf0dc04720c5958036cc74c8a53efd38bb9ae00,3284.410497,False,keypress,prescreenRsp_fadfat_rv,1250,[],choice-response,Fad,655e73d1a60ad4b436a1357f,2023-11-22 16:34:02-05:00,Fad,2260,589,EXP9a_PrescreenTrials_rv,PrescreenTrials,e0171,EXP9a,1,0,8
264,1985,6345b7f49677d36bd07c5a10,EXP9a_JF,0,e017104407282d18ad3a61455bf0dc04720c5958036cc74c8a53efd38bb9ae00,3284.410497,False,keypress,prescreenRsp_beadbeat_rv,1107,[],choice-response,Bead,655e73d1a60ad4b436a1357f,2023-11-22 16:34:02-05:00,Bead,1993,590,EXP9a_PrescreenTrials_rv,PrescreenTrials,e0171,EXP9a,1,0,8
265,1986,6345b7f49677d36bd07c5a10,EXP9a_JF,0,e017104407282d18ad3a61455bf0dc04720c5958036cc74c8a53efd38bb9ae00,3284.410497,False,keypress,prescreenRsp_fadfat_rv,896,[],choice-response,Fad,655e73d1a60ad4b436a1357f,2023-11-22 16:34:02-05:00,Fad,1923,591,EXP9a_PrescreenTrials_rv,PrescreenTrials,e0171,EXP9a,1,0,8
266,1987,6345b7f49677d36bd07c5a10,EXP9a_JF,0,e017104407282d18ad3a61455bf0dc04720c5958036cc74c8a53efd38bb9ae00,3284.410497,False,keypress,prescreenRsp_lablap_rv,1493,[],choice-response,Lab,655e73d1a60ad4b436a1357f,2023-11-22 16:34:02-05:00,Lab,2357,592,EXP9a_PrescreenTrials_rv,PrescreenTrials,e0171,EXP9a,1,0,8
267,1988,6345b7f49677d36bd07c5a10,EXP9a_JF,0,e017104407282d18ad3a61455bf0dc04720c5958036cc74c8a53efd38bb9ae00,3284.410497,False,keypress,prescreenRsp_laglack_rv,1429,[],choice-response,Lack,655e73d1a60ad4b436a1357f,2023-11-22 16:34:02-05:00,Lack,2103,593,EXP9a_PrescreenTrials_rv,PrescreenTrials,e0171,EXP9a,1,1,1
268,1989,6345b7f49677d36bd07c5a10,EXP9a_JF,0,e017104407282d18ad3a61455bf0dc04720c5958036cc74c8a53efd38bb9ae00,3284.410497,False,keypress,prescreenRsp_lablap_rv,1537,[],choice-response,Lab,655e73d1a60ad4b436a1357f,2023-11-22 16:34:02-05:00,Lap,2170,594,EXP9a_PrescreenTrials_rv,PrescreenTrials,e0171,EXP9a,0,0,1
269,1990,6345b7f49677d36bd07c5a10,EXP9a_JF,0,e017104407282d18ad3a61455bf0dc04720c5958036cc74c8a53efd38bb9ae00,3284.410497,False,keypress,prescreenRsp_cabcap_rv,2851,[],choice-response,Cap,655e73d1a60ad4b436a1357f,2023-11-22 16:34:02-05:00,Cab,3673,595,EXP9a_PrescreenTrials_rv,PrescreenTrials,e0171,EXP9a,0,1,8
270,1991,6345b7f49677d36bd07c5a10,EXP9a_JF,0,e017104407282d18ad3a61455bf0dc04720c5958036cc74c8a53efd38bb9ae00,3284.410497,False,keypress,prescreenRsp_fadfat_rv,3717,[],choice-response,Fad,655e73d1a60ad4b436a1357f,2023-11-22 16:34:02-05:00,Fat,4539,596,EXP9a_PrescreenTrials_rv,PrescreenTrials,e0171,EXP9a,0,0,1
271,1992,6345b7f49677d36bd07c5a10,EXP9a_JF,0,e017104407282d18ad3a61455bf0dc04720c5958036cc74c8a53efd38bb9ae00,3284.410497,False,keypress,prescreenRsp_bagback_rv,2867,[],choice-response,Back,655e73d1a60ad4b436a1357f,2023-11-22 16:34:02-05:00,Back,3499,597,EXP9a_PrescreenTrials_rv,PrescreenTrials,e0171,EXP9a,1,1,1
272,1993,6345b7f49677d36bd07c5a10,EXP9a_JF,0,e017104407282d18ad3a61455bf0dc04720c5958036cc74c8a53efd38bb9ae00,3284.410497,False,keypress,prescreenRsp_cabcap_rv,2977,[],choice-response,Cap,655e73d1a60ad4b436a1357f,2023-11-22 16:34:02-05:00,Cap,3634,598,EXP9a_PrescreenTrials_rv,PrescreenTrials,e0171,EXP9a,1,1,1
273,1994,6345b7f49677d36bd07c5a10,EXP9a_JF,0,e017104407282d18ad3a61455bf0dc04720c5958036cc74c8a53efd38bb9ae00,3284.410497,False,keypress,prescreenRsp_laglack_rv,1939,[],choice-response,Lag,655e73d1a60ad4b436a1357f,2023-11-22 16:34:02-05:00,Lag,2807,599,EXP9a_PrescreenTrials_rv,PrescreenTrials,e0171,EXP9a,1,0,8
274,1995,6345b7f49677d36bd07c5a10,EXP9a_JF,0,e017104407282d18ad3a61455bf0dc04720c5958036cc74c8a53efd38bb9ae00,3284.410497,False,keypress,prescreenRsp_beadbeat_rv,34270,[],choice-response,Bead,655e73d1a60ad4b436a1357f,2023-11-22 16:34:02-05:00,Beat,34969,600,EXP9a_PrescreenTrials_rv,PrescreenTrials,e0171,EXP9a,0,0,1
275,1996,6345b7f49677d36bd07c5a10,EXP9a_JF,0,e017104407282d18ad3a61455bf0dc04720c5958036cc74c8a53efd38bb9ae00,3284.410497,False,keypress,prescreenRsp_bagback_rv,5754,[],choice-response,Bag,655e73d1a60ad4b436a1357f,2023-11-22 16:34:02-05:00,Bag,6580,601,EXP9a_PrescreenTrials_rv,PrescreenTrials,e0171,EXP9a,1,0,8
276,1997,6345b7f49677d36bd07c5a10,EXP9a_JF,0,e017104407282d18ad3a61455bf0dc04720c5958036cc74c8a53efd38bb9ae00,3284.410497,False,keypress,prescreenRsp_cabcap_rv,13503,[],choice-response,Cab,655e73d1a60ad4b436a1357f,2023-11-22 16:34:02-05:00,Cab,14343,602,EXP9a_PrescreenTrials_rv,PrescreenTrials,e0171,EXP9a,1,0,8
277,1998,6345b7f49677d36bd07c5a10,EXP9a_JF,0,e017104407282d18ad3a61455bf0dc04720c5958036cc74c8a53efd38bb9ae00,3284.410497,False,keypress,prescreenRsp_cabcap_rv,1808,[],choice-response,Cap,655e73d1a60ad4b436a1357f,2023-11-22 16:34:02-05:00,Cap,2447,603,EXP9a_PrescreenTrials_rv,PrescreenTrials,e0171,EXP9a,1,1,1
278,1999,6345b7f49677d36bd07c5a10,EXP9a_JF,0,e017104407282d18ad3a61455bf0dc04720c5958036cc74c8a53efd38bb9ae00,3284.410497,False,keypress,prescreenRsp_beadbeat_rv,1978,[],choice-response,Beat,655e73d1a60ad4b436a1357f,2023-11-22 16:34:02-05:00,Beat,2684,604,EXP9a_PrescreenTrials_rv,PrescreenTrials,e0171,EXP9a,1,1,1
279,2000,6345b7f49677d36bd07c5a10,EXP9a_JF,0,e017104407282d18ad3a61455bf0dc04720c5958036cc74c8a53efd38bb9ae00,3284.410497,False,keypress,prescreenRsp_beadbeat_rv,1152,[],choice-response,Bead,655e73d1a60ad4b436a1357f,2023-11-22 16:34:02-05:00,Bead,2037,605,EXP9a_PrescreenTrials_rv,PrescreenTrials,e0171,EXP9a,1,0,8
280,2001,6345b7f49677d36bd07c5a10,EXP9a_JF,0,e017104407282d18ad3a61455bf0dc04720c5958036cc74c8a53efd38bb9ae00,3284.410497,False,keypress,prescreenRsp_laglack_rv,3199,[],choice-response,Lack,655e73d1a60ad4b436a1357f,2023-11-22 16:34:02-05:00,Lack,3873,606,EXP9a_PrescreenTrials_rv,PrescreenTrials,e0171,EXP9a,1,1,1
281,2002,6345b7f49677d36bd07c5a10,EXP9a_JF,0,e017104407282d18ad3a61455bf0dc04720c5958036cc74c8a53efd38bb9ae00,3284.410497,False,keypress,prescreenRsp_fadfat_rv,990,[],choice-response,Fad,655e73d1a60ad4b436a1357f,2023-11-22 16:34:02-05:00,Fad,2021,607,EXP9a_PrescreenTrials_rv,PrescreenTrials,e0171,EXP9a,1,0,8
282,2003,6345b7f49677d36bd07c5a10,EXP9a_JF,0,e017104407282d18ad3a61455bf0dc04720c5958036cc74c8a53efd38bb9ae00,3284.410497,False,keypress,prescreenRsp_bagback_rv,1063,[],choice-response,Back,655e73d1a60ad4b436a1357f,2023-11-22 16:34:02-05:00,Back,1695,608,EXP9a_PrescreenTrials_rv,PrescreenTrials,e0171,EXP9a,1,1,1
283,2004,6345b7f49677d36bd07c5a10,EXP9a_JF,0,e017104407282d18ad3a61455bf0dc04720c5958036cc74c8a53efd38bb9ae00,3284.410497,False,keypress,prescreenRsp_lablap_rv,959,[],choice-response,Lab,655e73d1a60ad4b436a1357f,2023-11-22 16:34:02-05:00,Lap,1614,609,EXP9a_PrescreenTrials_rv,PrescreenTrials,e0171,EXP9a,0,0,1
284,2005,6345b7f49677d36bd07c5a10,EXP9a_JF,0,e017104407282d18ad3a61455bf0dc04720c5958036cc74c8a53efd38bb9ae00,3284.410497,False,keypress,prescreenRsp_laglack_rv,1033,[],choice-response,Lag,655e73d1a60ad4b436a1357f,2023-11-22 16:34:02-05:00,Lag,1897,610,EXP9a_PrescreenTrials_rv,PrescreenTrials,e0171,EXP9a,1,0,8
285,2006,6345b7f49677d36bd07c5a10,EXP9a_JF,0,e017104407282d18ad3a61455bf0dc04720c5958036cc74c8a53efd38bb9ae00,3284.410497,False,keypress,prescreenRsp_lablap_rv,972,[],choice-response,Lab,655e73d1a60ad4b436a1357f,2023-11-22 16:34:02-05:00,Lab,1838,611,EXP9a_PrescreenTrials_rv,PrescreenTrials,e0171,EXP9a,1,0,8
286,2007,6345b7f49677d36bd07c5a10,EXP9a_JF,0,e017104407282d18ad3a61455bf0dc04720c5958036cc74c8a53efd38bb9ae00,3284.410497,False,keypress,prescreenRsp_fadfat_rv,1235,[],choice-response,Fat,655e73d1a60ad4b436a1357f,2023-11-22 16:34:02-05:00,Fat,2075,612,EXP9a_PrescreenTrials_rv,PrescreenTrials,e0171,EXP9a,1,1,1
287,2008,6345b7f49677d36bd07c5a10,EXP9a_JF,0,e017104407282d18ad3a61455bf0dc04720c5958036cc74c8a53efd38bb9ae00,3284.410497,False,keypress,prescreenRsp_bagback_rv,1161,[],choice-response,Bag,655e73d1a60ad4b436a1357f,2023-11-22 16:34:02-05:00,Bag,2000,613,EXP9a_PrescreenTrials_rv,PrescreenTrials,e0171,EXP9a,1,0,8
288,2009,6345b7f49677d36bd07c5a10,EXP9a_JF,0,e017104407282d18ad3a61455bf0dc04720c5958036cc74c8a53efd38bb9ae00,3284.410497,False,keypress,prescreenRsp_bagback_rv,1619,[],choice-response,Back,655e73d1a60ad4b436a1357f,2023-11-22 16:34:02-05:00,Back,2248,614,EXP9a_PrescreenTrials_rv,PrescreenTrials,e0171,EXP9a,1,1,1
289,2010,6345b7f49677d36bd07c5a10,EXP9a_JF,0,e017104407282d18ad3a61455bf0dc04720c5958036cc74c8a53efd38bb9ae00,3284.410497,False,keypress,prescreenRsp_lablap_rv,1892,[],choice-response,Lap,655e73d1a60ad4b436a1357f,2023-11-22 16:34:02-05:00,Lap,2551,615,EXP9a_PrescreenTrials_rv,PrescreenTrials,e0171,EXP9a,1,1,1
290,2011,6345b7f49677d36bd07c5a10,EXP9a_JF,0,e017104407282d18ad3a61455bf0dc04720c5958036cc74c8a53efd38bb9ae00,3284.410497,False,keypress,prescreenRsp_cabcap_rv,1016,[],choice-response,Cab,655e73d1a60ad4b436a1357f,2023-11-22 16:34:02-05:00,Cab,1858,616,EXP9a_PrescreenTrials_rv,PrescreenTrials,e0171,EXP9a,1,0,8
291,2012,6345b7f49677d36bd07c5a10,EXP9a_JF,0,e017104407282d18ad3a61455bf0dc04720c5958036cc74c8a53efd38bb9ae00,3284.410497,False,keypress,prescreenRsp_fadfat_rv,2302,[],choice-response,Fat,655e73d1a60ad4b436a1357f,2023-11-22 16:34:02-05:00,Fat,3143,617,EXP9a_PrescreenTrials_rv,PrescreenTrials,e0171,EXP9a,1,1,1
292,2013,6345b7f49677d36bd07c5a10,EXP9a_JF,0,e017104407282d18ad3a61455bf0dc04720c5958036cc74c8a53efd38bb9ae00,3284.410497,False,keypress,prescreenRsp_lablap_rv,1037,[],choice-response,Lab,655e73d1a60ad4b436a1357f,2023-11-22 16:34:02-05:00,Lab,1900,618,EXP9a_PrescreenTrials_rv,PrescreenTrials,e0171,EXP9a,1,0,8
293,2014,6345b7f49677d36bd07c5a10,EXP9a_JF,0,e017104407282d18ad3a61455bf0dc04720c5958036cc74c8a53efd38bb9ae00,3284.410497,False,keypress,prescreenRsp_laglack_rv,1651,[],choice-response,Lag,655e73d1a60ad4b436a1357f,2023-11-22 16:34:02-05:00,Lag,2496,619,EXP9a_PrescreenTrials_rv,PrescreenTrials,e0171,EXP9a,1,0,8
294,2015,6345b7f49677d36bd07c5a10,EXP9a_JF,0,e017104407282d18ad3a61455bf0dc04720c5958036cc74c8a53efd38bb9ae00,3284.410497,False,keypress,prescreenRsp_beadbeat_rv,1884,[],choice-response,Bead,655e73d1a60ad4b436a1357f,2023-11-22 16:34:02-05:00,Bead,2770,620,EXP9a_PrescreenTrials_rv,PrescreenTrials,e0171,EXP9a,1,0,8
295,2016,6345b7f49677d36bd07c5a10,EXP9a_JF,0,e017104407282d18ad3a61455bf0dc04720c5958036cc74c8a53efd38bb9ae00,3284.410497,False,keypress,prescreenRsp_fadfat_rv,1495,[],choice-response,Fad,655e73d1a60ad4b436a1357f,2023-11-22 16:34:02-05:00,Fad,2523,621,EXP9a_PrescreenTrials_rv,PrescreenTrials,e0171,EXP9a,1,0,8
296,2017,6345b7f49677d36bd07c5a10,EXP9a_JF,0,e017104407282d18ad3a61455bf0dc04720c5958036cc74c8a53efd38bb9ae00,3284.410497,False,keypress,prescreenRsp_cabcap_rv,1467,[],choice-response,Cap,655e73d1a60ad4b436a1357f,2023-11-22 16:34:02-05:00,Cap,2125,622,EXP9a_PrescreenTrials_rv,PrescreenTrials,e0171,EXP9a,1,1,1
297,2018,6345b7f49677d36bd07c5a10,EXP9a_JF,0,e017104407282d18ad3a61455bf0dc04720c5958036cc74c8a53efd38bb9ae00,3284.410497,False,keypress,prescreenRsp_laglack_rv,8272,[],choice-response,Lack,655e73d1a60ad4b436a1357f,2023-11-22 16:34:02-05:00,Lack,8952,623,EXP9a_PrescreenTrials_rv,PrescreenTrials,e0171,EXP9a,1,1,1
298,2019,6345b7f49677d36bd07c5a10,EXP9a_JF,0,e017104407282d18ad3a61455bf0dc04720c5958036cc74c8a53efd38bb9ae00,3284.410497,False,keypress,prescreenRsp_beadbeat_rv,441,[],choice-response,Bead,655e73d1a60ad4b436a1357f,2023-11-22 16:34:02-05:00,Beat,1142,624,EXP9a_PrescreenTrials_rv,PrescreenTrials,e0171,EXP9a,0,0,1
299,2020,6345b7f49677d36bd07c5a10,EXP9a_JF,0,e017104407282d18ad3a61455bf0dc04720c5958036cc74c8a53efd38bb9ae00,3284.410497,False,keypress,prescreenRsp_bagback_rv,2042,[],choice-response,Back,655e73d1a60ad4b436a1357f,2023-11-22 16:34:02-05:00,Bag,2886,625,EXP9a_PrescreenTrials_rv,PrescreenTrials,e0171,EXP9a,0,1,8
300,2021,6345b7f49677d36bd07c5a10,EXP9a_JF,0,e017104407282d18ad3a61455bf0dc04720c5958036cc74c8a53efd38bb9ae00,3284.410497,False,keypress,prescreenRsp_fadfat_rv,1035,[],choice-response,Fat,655e73d1a60ad4b436a1357f,2023-11-22 16:34:02-05:00,Fad,2059,626,EXP9a_PrescreenTrials_rv,PrescreenTrials,e0171,EXP9a,0,1,8
301,2022,6345b7f49677d36bd07c5a10,EXP9a_JF,0,e017104407282d18ad3a61455bf0dc04720c5958036cc74c8a53efd38bb9ae00,3284.410497,False,keypress,prescreenRsp_cabcap_rv,2694,[],choice-response,Cap,655e73d1a60ad4b436a1357f,2023-11-22 16:34:02-05:00,Cap,3348,627,EXP9a_PrescreenTrials_rv,PrescreenTrials,e0171,EXP9a,1,1,1
302,2023,6345b7f49677d36bd07c5a10,EXP9a_JF,0,e017104407282d18ad3a61455bf0dc04720c5958036cc74c8a53efd38bb9ae00,3284.410497,False,keypress,prescreenRsp_beadbeat_rv,8610,[],choice-response,Bead,655e73d1a60ad4b436a1357f,2023-11-22 16:34:02-05:00,Beat,9290,628,EXP9a_PrescreenTrials_rv,PrescreenTrials,e0171,EXP9a,0,0,1
303,2024,6345b7f49677d36bd07c5a10,EXP9a_JF,0,e017104407282d18ad3a61455bf0dc04720c5958036cc74c8a53efd38bb9ae00,3284.410497,False,keypress,prescreenRsp_bagback_rv,17487,[],choice-response,Bag,655e73d1a60ad4b436a1357f,2023-11-22 16:34:02-05:00,Bag,18334,629,EXP9a_PrescreenTrials_rv,PrescreenTrials,e0171,EXP9a,1,0,8
304,2025,6345b7f49677d36bd07c5a10,EXP9a_JF,0,e017104407282d18ad3a61455bf0dc04720c5958036cc74c8a53efd38bb9ae00,3284.410497,False,keypress,prescreenRsp_lablap_rv,2206,[],choice-response,Lap,655e73d1a60ad4b436a1357f,2023-11-22 16:34:02-05:00,Lap,2853,630,EXP9a_PrescreenTrials_rv,PrescreenTrials,e0171,EXP9a,1,1,1
305,2026,6345b7f49677d36bd07c5a10,EXP9a_JF,0,e017104407282d18ad3a61455bf0dc04720c5958036cc74c8a53efd38bb9ae00,3284.410497,False,keypress,prescreenRsp_laglack_rv,2099,[],choice-response,Lag,655e73d1a60ad4b436a1357f,2023-11-22 16:34:02-05:00,Lack,2758,631,EXP9a_PrescreenTrials_rv,PrescreenTrials,e0171,EXP9a,0,0,1
306,2027,6345b7f49677d36bd07c5a10,EXP9a_JF,0,e017104407282d18ad3a61455bf0dc04720c5958036cc74c8a53efd38bb9ae00,3284.410497,False,keypress,prescreenRsp_fadfat_rv,2184,[],choice-response,Fat,655e73d1a60ad4b436a1357f,2023-11-22 16:34:02-05:00,Fat,3021,632,EXP9a_PrescreenTrials_rv,PrescreenTrials,e0171,EXP9a,1,1,1
307,2028,6345b7f49677d36bd07c5a10,EXP9a_JF,0,e017104407282d18ad3a61455bf0dc04720c5958036cc74c8a53efd38bb9ae00,3284.410497,False,keypress,prescreenRsp_bagback_rv,2354,[],choice-response,Bag,655e73d1a60ad4b436a1357f,2023-11-22 16:34:02-05:00,Back,2983,633,EXP9a_PrescreenTrials_rv,PrescreenTrials,e0171,EXP9a,0,0,1
308,2029,6345b7f49677d36bd07c5a10,EXP9a_JF,0,e017104407282d18ad3a61455bf0dc04720c5958036cc74c8a53efd38bb9ae00,3284.410497,False,keypress,prescreenRsp_laglack_rv,1986,[],choice-response,Lag,655e73d1a60ad4b436a1357f,2023-11-22 16:34:02-05:00,Lag,2848,634,EXP9a_PrescreenTrials_rv,PrescreenTrials,e0171,EXP9a,1,0,8
309,2030,6345b7f49677d36bd07c5a10,EXP9a_JF,0,e017104407282d18ad3a61455bf0dc04720c5958036cc74c8a53efd38bb9ae00,3284.410497,False,keypress,prescreenRsp_cabcap_rv,718,[],choice-response,Cap,655e73d1a60ad4b436a1357f,2023-11-22 16:34:02-05:00,Cab,1555,635,EXP9a_PrescreenTrials_rv,PrescreenTrials,e0171,EXP9a,0,1,8
310,2031,6345b7f49677d36bd07c5a10,EXP9a_JF,0,e017104407282d18ad3a61455bf0dc04720c5958036cc74c8a53efd38bb9ae00,3284.410497,False,keypress,prescreenRsp_beadbeat_rv,899,[],choice-response,Bead,655e73d1a60ad4b436a1357f,2023-11-22 16:34:02-05:00,Bead,1788,636,EXP9a_PrescreenTrials_rv,PrescreenTrials,e0171,EXP9a,1,0,8
311,2032,6345b7f49677d36bd07c5a10,EXP9a_JF,0,e017104407282d18ad3a61455bf0dc04720c5958036cc74c8a53efd38bb9ae00,3284.410497,False,keypress,prescreenRsp_lablap_rv,1930,[],choice-response,Lab,655e73d1a60ad4b436a1357f,2023-11-22 16:34:02-05:00,Lab,2792,637,EXP9a_PrescreenTrials_rv,PrescreenTrials,e0171,EXP9a,1,0,8
312,2033,6345b7f49677d36bd07c5a10,EXP9a_JF,0,e017104407282d18ad3a61455bf0dc04720c5958036cc74c8a53efd38bb9ae00,3284.410497,False,keypress,prescreenRsp_cabcap_rv,1553,[],choice-response,Cab,655e73d1a60ad4b436a1357f,2023-11-22 16:34:02-05:00,Cap,2206,638,EXP9a_PrescreenTrials_rv,PrescreenTrials,e0171,EXP9a,0,0,1
313,2034,6345b7f49677d36bd07c5a10,EXP9a_JF,0,e017104407282d18ad3a61455bf0dc04720c5958036cc74c8a53efd38bb9ae00,3284.410497,False,keypress,prescreenRsp_bagback_rv,1235,[],choice-response,Bag,655e73d1a60ad4b436a1357f,2023-11-22 16:34:02-05:00,Back,1847,639,EXP9a_PrescreenTrials_rv,PrescreenTrials,e0171,EXP9a,0,0,1
314,2035,6345b7f49677d36bd07c5a10,EXP9a_JF,0,e017104407282d18ad3a61455bf0dc04720c5958036cc74c8a53efd38bb9ae00,3284.410497,False,keypress,prescreenRsp_cabcap_rv,970,[],choice-response,Cap,655e73d1a60ad4b436a1357f,2023-11-22 16:34:02-05:00,Cab,1808,640,EXP9a_PrescreenTrials_rv,PrescreenTrials,e0171,EXP9a,0,1,8
315,2036,6345b7f49677d36bd07c5a10,EXP9a_JF,0,e017104407282d18ad3a61455bf0dc04720c5958036cc74c8a53efd38bb9ae00,3284.410497,False,keypress,prescreenRsp_lablap_rv,910,[],choice-response,Lab,655e73d1a60ad4b436a1357f,2023-11-22 16:34:02-05:00,Lap,1546,641,EXP9a_PrescreenTrials_rv,PrescreenTrials,e0171,EXP9a,0,0,1
316,2037,6345b7f49677d36bd07c5a10,EXP9a_JF,0,e017104407282d18ad3a61455bf0dc04720c5958036cc74c8a53efd38bb9ae00,3284.410497,False,keypress,prescreenRsp_beadbeat_rv,1229,[],choice-response,Bead,655e73d1a60ad4b436a1357f,2023-11-22 16:34:02-05:00,Beat,1930,642,EXP9a_PrescreenTrials_rv,PrescreenTrials,e0171,EXP9a,0,0,1
317,2038,6345b7f49677d36bd07c5a10,EXP9a_JF,0,e017104407282d18ad3a61455bf0dc04720c5958036cc74c8a53efd38bb9ae00,3284.410497,False,keypress,prescreenRsp_bagback_rv,1753,[],choice-response,Bag,655e73d1a60ad4b436a1357f,2023-11-22 16:34:02-05:00,Bag,2597,643,EXP9a_PrescreenTrials_rv,PrescreenTrials,e0171,EXP9a,1,0,8
318,2039,6345b7f49677d36bd07c5a10,EXP9a_JF,0,e017104407282d18ad3a61455bf0dc04720c5958036cc74c8a53efd38bb9ae00,3284.410497,False,keypress,prescreenRsp_fadfat_rv,988,[],choice-response,Fad,655e73d1a60ad4b436a1357f,2023-11-22 16:34:02-05:00,Fad,2009,644,EXP9a_PrescreenTrials_rv,PrescreenTrials,e0171,EXP9a,1,0,8
319,2040,6345b7f49677d36bd07c5a10,EXP9a_JF,0,e017104407282d18ad3a61455bf0dc04720c5958036cc74c8a53efd38bb9ae00,3284.410497,False,keypress,prescreenRsp_laglack_rv,2177,[],choice-response,Lag,655e73d1a60ad4b436a1357f,2023-11-22 16:34:02-05:00,Lack,2854,645,EXP9a_PrescreenTrials_rv,PrescreenTrials,e0171,EXP9a,0,0,1
320,2041,6345b7f49677d36bd07c5a10,EXP9a_JF,0,e017104407282d18ad3a61455bf0dc04720c5958036cc74c8a53efd38bb9ae00,3284.410497,False,keypress,prescreenRsp_fadfat_rv,7557,[],choice-response,Fat,655e73d1a60ad4b436a1357f,2023-11-22 16:34:02-05:00,Fat,8397,646,EXP9a_PrescreenTrials_rv,PrescreenTrials,e0171,EXP9a,1,1,1
321,2042,6345b7f49677d36bd07c5a10,EXP9a_JF,0,e017104407282d18ad3a61455bf0dc04720c5958036cc74c8a53efd38bb9ae00,3284.410497,False,keypress,prescreenRsp_laglack_rv,12534,[],choice-response,Lag,655e73d1a60ad4b436a1357f,2023-11-22 16:34:02-05:00,Lag,13401,647,EXP9a_PrescreenTrials_rv,PrescreenTrials,e0171,EXP9a,1,0,8
