expt_id,group_id,network_error_repeat,participant_id,participation_duration,response_correct,response_mode,response_name,response_rt,response_target,response_type,response_value,session_id,session_start_time,stimuli_presented,trial_duration,trial_num,trial_template
6345b7f49677d36bd07c5a10,EXP9a_JF,0,7d2de33f1c0e1235bff983d6b029de949199fc2bb2d69cf5074583daa421524c,2104.1458609104156,False,click,survey_noise,3276,[],choice-response,1,655e73d1a60ad4b436a1357f,2023-11-22 16:34:02-05:00,logistics_noise,5914,1,logisticsQuestionnaire
6345b7f49677d36bd07c5a10,EXP9a_JF,0,7d2de33f1c0e1235bff983d6b029de949199fc2bb2d69cf5074583daa421524c,2104.1458609104156,False,click,survey_headphone1,3715,[],choice-response,No,655e73d1a60ad4b436a1357f,2023-11-22 16:34:02-05:00,logistic_headphone1,5572,2,logisticsQuestionnaire
6345b7f49677d36bd07c5a10,EXP9a_JF,0,7d2de33f1c0e1235bff983d6b029de949199fc2bb2d69cf5074583daa421524c,2104.1458609104156,False,click,survey_headphone2,8329,[],choice-response,Built in Laptop/Desktop Speaker (Please use headphones if possible!),655e73d1a60ad4b436a1357f,2023-11-22 16:34:02-05:00,logistic_headphone2,9353,3,logisticsQuestionnaire
6345b7f49677d36bd07c5a10,EXP9a_JF,0,7d2de33f1c0e1235bff983d6b029de949199fc2bb2d69cf5074583daa421524c,2104.1458609104156,False,keypress,EXP9a_ExpRsp_at_rv,4884,['At'],choice-response,Add,655e73d1a60ad4b436a1357f,2023-11-22 16:34:02-05:00,speech1,8592,4,EXP9a_disc_example_rv
6345b7f49677d36bd07c5a10,EXP9a_JF,0,7d2de33f1c0e1235bff983d6b029de949199fc2bb2d69cf5074583daa421524c,2104.1458609104156,True,keypress,EXP9a_ExpRsp_add_rv,2051,['Add'],choice-response,Add,655e73d1a60ad4b436a1357f,2023-11-22 16:34:02-05:00,speech8,6418,5,EXP9a_disc_example_rv
6345b7f49677d36bd07c5a10,EXP9a_JF,0,7d2de33f1c0e1235bff983d6b029de949199fc2bb2d69cf5074583daa421524c,2104.1458609104156,True,keypress,EXP9a_ExpRsp_add_rv,1981,['Add'],choice-response,Add,655e73d1a60ad4b436a1357f,2023-11-22 16:34:02-05:00,speech8,5368,6,EXP9a_disc_example_rv
6345b7f49677d36bd07c5a10,EXP9a_JF,0,7d2de33f1c0e1235bff983d6b029de949199fc2bb2d69cf5074583daa421524c,2104.1458609104156,True,keypress,EXP9a_ExpRsp_at_rv,1103,['At'],choice-response,At,655e73d1a60ad4b436a1357f,2023-11-22 16:34:02-05:00,speech1,4351,7,EXP9a_disc_example_rv
6345b7f49677d36bd07c5a10,EXP9a_JF,0,7d2de33f1c0e1235bff983d6b029de949199fc2bb2d69cf5074583daa421524c,2104.1458609104156,False,keypress,EXP9a_testRsp_rv,663,[],choice-response,Add,655e73d1a60ad4b436a1357f,2023-11-22 16:34:02-05:00,speech5,1726,8,DiscriminationTrials_rv
6345b7f49677d36bd07c5a10,EXP9a_JF,0,7d2de33f1c0e1235bff983d6b029de949199fc2bb2d69cf5074583daa421524c,2104.1458609104156,False,keypress,EXP9a_testRsp_rv,1266,[],choice-response,Add,655e73d1a60ad4b436a1357f,2023-11-22 16:34:02-05:00,speech2,2333,9,DiscriminationTrials_rv
6345b7f49677d36bd07c5a10,EXP9a_JF,0,7d2de33f1c0e1235bff983d6b029de949199fc2bb2d69cf5074583daa421524c,2104.1458609104156,False,keypress,EXP9a_testRsp_rv,673,[],choice-response,Add,655e73d1a60ad4b436a1357f,2023-11-22 16:34:02-05:00,speech6,1900,10,DiscriminationTrials_rv
6345b7f49677d36bd07c5a10,EXP9a_JF,0,7d2de33f1c0e1235bff983d6b029de949199fc2bb2d69cf5074583daa421524c,2104.1458609104156,False,keypress,EXP9a_testRsp_rv,810,[],choice-response,Add,655e73d1a60ad4b436a1357f,2023-11-22 16:34:02-05:00,speech7,1890,11,DiscriminationTrials_rv
6345b7f49677d36bd07c5a10,EXP9a_JF,0,7d2de33f1c0e1235bff983d6b029de949199fc2bb2d69cf5074583daa421524c,2104.1458609104156,False,keypress,EXP9a_testRsp_rv,633,[],choice-response,At,655e73d1a60ad4b436a1357f,2023-11-22 16:34:02-05:00,speech4,1551,12,DiscriminationTrials_rv
6345b7f49677d36bd07c5a10,EXP9a_JF,0,7d2de33f1c0e1235bff983d6b029de949199fc2bb2d69cf5074583daa421524c,2104.1458609104156,False,keypress,EXP9a_testRsp_rv,444,[],choice-response,At,655e73d1a60ad4b436a1357f,2023-11-22 16:34:02-05:00,speech1,1076,13,DiscriminationTrials_rv
6345b7f49677d36bd07c5a10,EXP9a_JF,0,7d2de33f1c0e1235bff983d6b029de949199fc2bb2d69cf5074583daa421524c,2104.1458609104156,False,keypress,EXP9a_testRsp_rv,437,[],choice-response,At,655e73d1a60ad4b436a1357f,2023-11-22 16:34:02-05:00,speech3,1399,14,DiscriminationTrials_rv
6345b7f49677d36bd07c5a10,EXP9a_JF,0,7d2de33f1c0e1235bff983d6b029de949199fc2bb2d69cf5074583daa421524c,2104.1458609104156,False,keypress,EXP9a_testRsp_rv,313,[],choice-response,Add,655e73d1a60ad4b436a1357f,2023-11-22 16:34:02-05:00,speech8,1071,15,DiscriminationTrials_rv
6345b7f49677d36bd07c5a10,EXP9a_JF,0,7d2de33f1c0e1235bff983d6b029de949199fc2bb2d69cf5074583daa421524c,2104.1458609104156,False,keypress,EXP9a_testRsp_rv,640,[],choice-response,At,655e73d1a60ad4b436a1357f,2023-11-22 16:34:02-05:00,speech2,1342,16,DiscriminationTrials_rv
6345b7f49677d36bd07c5a10,EXP9a_JF,0,7d2de33f1c0e1235bff983d6b029de949199fc2bb2d69cf5074583daa421524c,2104.1458609104156,False,keypress,EXP9a_testRsp_rv,223,[],choice-response,Add,655e73d1a60ad4b436a1357f,2023-11-22 16:34:02-05:00,speech8,988,17,DiscriminationTrials_rv
6345b7f49677d36bd07c5a10,EXP9a_JF,0,7d2de33f1c0e1235bff983d6b029de949199fc2bb2d69cf5074583daa421524c,2104.1458609104156,False,keypress,EXP9a_testRsp_rv,336,[],choice-response,At,655e73d1a60ad4b436a1357f,2023-11-22 16:34:02-05:00,speech1,974,18,DiscriminationTrials_rv
6345b7f49677d36bd07c5a10,EXP9a_JF,0,7d2de33f1c0e1235bff983d6b029de949199fc2bb2d69cf5074583daa421524c,2104.1458609104156,False,keypress,EXP9a_testRsp_rv,403,[],choice-response,At,655e73d1a60ad4b436a1357f,2023-11-22 16:34:02-05:00,speech3,1042,19,DiscriminationTrials_rv
6345b7f49677d36bd07c5a10,EXP9a_JF,0,7d2de33f1c0e1235bff983d6b029de949199fc2bb2d69cf5074583daa421524c,2104.1458609104156,False,keypress,EXP9a_testRsp_rv,244,[],choice-response,Add,655e73d1a60ad4b436a1357f,2023-11-22 16:34:02-05:00,speech7,980,20,DiscriminationTrials_rv
6345b7f49677d36bd07c5a10,EXP9a_JF,0,7d2de33f1c0e1235bff983d6b029de949199fc2bb2d69cf5074583daa421524c,2104.1458609104156,False,keypress,EXP9a_testRsp_rv,230,[],choice-response,Add,655e73d1a60ad4b436a1357f,2023-11-22 16:34:02-05:00,speech6,947,21,DiscriminationTrials_rv
6345b7f49677d36bd07c5a10,EXP9a_JF,0,7d2de33f1c0e1235bff983d6b029de949199fc2bb2d69cf5074583daa421524c,2104.1458609104156,False,keypress,EXP9a_testRsp_rv,240,[],choice-response,Add,655e73d1a60ad4b436a1357f,2023-11-22 16:34:02-05:00,speech4,906,22,DiscriminationTrials_rv
6345b7f49677d36bd07c5a10,EXP9a_JF,0,7d2de33f1c0e1235bff983d6b029de949199fc2bb2d69cf5074583daa421524c,2104.1458609104156,False,keypress,EXP9a_testRsp_rv,364,[],choice-response,Add,655e73d1a60ad4b436a1357f,2023-11-22 16:34:02-05:00,speech5,1052,23,DiscriminationTrials_rv
6345b7f49677d36bd07c5a10,EXP9a_JF,0,7d2de33f1c0e1235bff983d6b029de949199fc2bb2d69cf5074583daa421524c,2104.1458609104156,False,keypress,EXP9a_testRsp_rv,567,[],choice-response,Add,655e73d1a60ad4b436a1357f,2023-11-22 16:34:02-05:00,speech3,1210,24,DiscriminationTrials_rv
6345b7f49677d36bd07c5a10,EXP9a_JF,0,7d2de33f1c0e1235bff983d6b029de949199fc2bb2d69cf5074583daa421524c,2104.1458609104156,False,keypress,EXP9a_testRsp_rv,340,[],choice-response,Add,655e73d1a60ad4b436a1357f,2023-11-22 16:34:02-05:00,speech6,1054,25,DiscriminationTrials_rv
6345b7f49677d36bd07c5a10,EXP9a_JF,0,7d2de33f1c0e1235bff983d6b029de949199fc2bb2d69cf5074583daa421524c,2104.1458609104156,False,keypress,EXP9a_testRsp_rv,392,[],choice-response,Add,655e73d1a60ad4b436a1357f,2023-11-22 16:34:02-05:00,speech4,1060,26,DiscriminationTrials_rv
6345b7f49677d36bd07c5a10,EXP9a_JF,0,7d2de33f1c0e1235bff983d6b029de949199fc2bb2d69cf5074583daa421524c,2104.1458609104156,False,keypress,EXP9a_testRsp_rv,874,[],choice-response,Add,655e73d1a60ad4b436a1357f,2023-11-22 16:34:02-05:00,speech5,1563,27,DiscriminationTrials_rv
6345b7f49677d36bd07c5a10,EXP9a_JF,0,7d2de33f1c0e1235bff983d6b029de949199fc2bb2d69cf5074583daa421524c,2104.1458609104156,False,keypress,EXP9a_testRsp_rv,750,[],choice-response,At,655e73d1a60ad4b436a1357f,2023-11-22 16:34:02-05:00,speech7,1488,28,DiscriminationTrials_rv
6345b7f49677d36bd07c5a10,EXP9a_JF,0,7d2de33f1c0e1235bff983d6b029de949199fc2bb2d69cf5074583daa421524c,2104.1458609104156,False,keypress,EXP9a_testRsp_rv,758,[],choice-response,At,655e73d1a60ad4b436a1357f,2023-11-22 16:34:02-05:00,speech1,1377,29,DiscriminationTrials_rv
6345b7f49677d36bd07c5a10,EXP9a_JF,0,7d2de33f1c0e1235bff983d6b029de949199fc2bb2d69cf5074583daa421524c,2104.1458609104156,False,keypress,EXP9a_testRsp_rv,217,[],choice-response,Add,655e73d1a60ad4b436a1357f,2023-11-22 16:34:02-05:00,speech8,974,30,DiscriminationTrials_rv
6345b7f49677d36bd07c5a10,EXP9a_JF,0,7d2de33f1c0e1235bff983d6b029de949199fc2bb2d69cf5074583daa421524c,2104.1458609104156,False,keypress,EXP9a_testRsp_rv,497,[],choice-response,At,655e73d1a60ad4b436a1357f,2023-11-22 16:34:02-05:00,speech2,1136,31,DiscriminationTrials_rv
6345b7f49677d36bd07c5a10,EXP9a_JF,0,7d2de33f1c0e1235bff983d6b029de949199fc2bb2d69cf5074583daa421524c,2104.1458609104156,False,keypress,EXP9a_testRsp_rv,392,[],choice-response,At,655e73d1a60ad4b436a1357f,2023-11-22 16:34:02-05:00,speech3,1032,32,DiscriminationTrials_rv
6345b7f49677d36bd07c5a10,EXP9a_JF,0,7d2de33f1c0e1235bff983d6b029de949199fc2bb2d69cf5074583daa421524c,2104.1458609104156,False,keypress,EXP9a_testRsp_rv,211,[],choice-response,Add,655e73d1a60ad4b436a1357f,2023-11-22 16:34:02-05:00,speech4,875,33,DiscriminationTrials_rv
6345b7f49677d36bd07c5a10,EXP9a_JF,0,7d2de33f1c0e1235bff983d6b029de949199fc2bb2d69cf5074583daa421524c,2104.1458609104156,False,keypress,EXP9a_testRsp_rv,375,[],choice-response,At,655e73d1a60ad4b436a1357f,2023-11-22 16:34:02-05:00,speech1,997,34,DiscriminationTrials_rv
6345b7f49677d36bd07c5a10,EXP9a_JF,0,7d2de33f1c0e1235bff983d6b029de949199fc2bb2d69cf5074583daa421524c,2104.1458609104156,False,keypress,EXP9a_testRsp_rv,385,[],choice-response,At,655e73d1a60ad4b436a1357f,2023-11-22 16:34:02-05:00,speech2,1022,35,DiscriminationTrials_rv
6345b7f49677d36bd07c5a10,EXP9a_JF,0,7d2de33f1c0e1235bff983d6b029de949199fc2bb2d69cf5074583daa421524c,2104.1458609104156,False,keypress,EXP9a_testRsp_rv,680,[],choice-response,Add,655e73d1a60ad4b436a1357f,2023-11-22 16:34:02-05:00,speech6,1415,36,DiscriminationTrials_rv
6345b7f49677d36bd07c5a10,EXP9a_JF,0,7d2de33f1c0e1235bff983d6b029de949199fc2bb2d69cf5074583daa421524c,2104.1458609104156,False,keypress,EXP9a_testRsp_rv,421,[],choice-response,Add,655e73d1a60ad4b436a1357f,2023-11-22 16:34:02-05:00,speech8,1173,37,DiscriminationTrials_rv
6345b7f49677d36bd07c5a10,EXP9a_JF,0,7d2de33f1c0e1235bff983d6b029de949199fc2bb2d69cf5074583daa421524c,2104.1458609104156,False,keypress,EXP9a_testRsp_rv,372,[],choice-response,Add,655e73d1a60ad4b436a1357f,2023-11-22 16:34:02-05:00,speech7,1106,38,DiscriminationTrials_rv
6345b7f49677d36bd07c5a10,EXP9a_JF,0,7d2de33f1c0e1235bff983d6b029de949199fc2bb2d69cf5074583daa421524c,2104.1458609104156,False,keypress,EXP9a_testRsp_rv,414,[],choice-response,At,655e73d1a60ad4b436a1357f,2023-11-22 16:34:02-05:00,speech5,1106,39,DiscriminationTrials_rv
6345b7f49677d36bd07c5a10,EXP9a_JF,0,7d2de33f1c0e1235bff983d6b029de949199fc2bb2d69cf5074583daa421524c,2104.1458609104156,False,keypress,EXP9a_testRsp_rv,326,[],choice-response,At,655e73d1a60ad4b436a1357f,2023-11-22 16:34:02-05:00,speech1,946,40,DiscriminationTrials_rv
6345b7f49677d36bd07c5a10,EXP9a_JF,0,7d2de33f1c0e1235bff983d6b029de949199fc2bb2d69cf5074583daa421524c,2104.1458609104156,False,keypress,EXP9a_testRsp_rv,295,[],choice-response,Add,655e73d1a60ad4b436a1357f,2023-11-22 16:34:02-05:00,speech8,1055,41,DiscriminationTrials_rv
6345b7f49677d36bd07c5a10,EXP9a_JF,0,7d2de33f1c0e1235bff983d6b029de949199fc2bb2d69cf5074583daa421524c,2104.1458609104156,False,keypress,EXP9a_testRsp_rv,816,[],choice-response,Add,655e73d1a60ad4b436a1357f,2023-11-22 16:34:02-05:00,speech4,1483,42,DiscriminationTrials_rv
6345b7f49677d36bd07c5a10,EXP9a_JF,0,7d2de33f1c0e1235bff983d6b029de949199fc2bb2d69cf5074583daa421524c,2104.1458609104156,False,keypress,EXP9a_testRsp_rv,394,[],choice-response,At,655e73d1a60ad4b436a1357f,2023-11-22 16:34:02-05:00,speech2,1034,43,DiscriminationTrials_rv
6345b7f49677d36bd07c5a10,EXP9a_JF,0,7d2de33f1c0e1235bff983d6b029de949199fc2bb2d69cf5074583daa421524c,2104.1458609104156,False,keypress,EXP9a_testRsp_rv,1059,[],choice-response,Add,655e73d1a60ad4b436a1357f,2023-11-22 16:34:02-05:00,speech5,1738,44,DiscriminationTrials_rv
6345b7f49677d36bd07c5a10,EXP9a_JF,0,7d2de33f1c0e1235bff983d6b029de949199fc2bb2d69cf5074583daa421524c,2104.1458609104156,False,keypress,EXP9a_testRsp_rv,382,[],choice-response,Add,655e73d1a60ad4b436a1357f,2023-11-22 16:34:02-05:00,speech3,1017,45,DiscriminationTrials_rv
6345b7f49677d36bd07c5a10,EXP9a_JF,0,7d2de33f1c0e1235bff983d6b029de949199fc2bb2d69cf5074583daa421524c,2104.1458609104156,False,keypress,EXP9a_testRsp_rv,362,[],choice-response,Add,655e73d1a60ad4b436a1357f,2023-11-22 16:34:02-05:00,speech7,1095,46,DiscriminationTrials_rv
6345b7f49677d36bd07c5a10,EXP9a_JF,0,7d2de33f1c0e1235bff983d6b029de949199fc2bb2d69cf5074583daa421524c,2104.1458609104156,False,keypress,EXP9a_testRsp_rv,266,[],choice-response,Add,655e73d1a60ad4b436a1357f,2023-11-22 16:34:02-05:00,speech6,984,47,DiscriminationTrials_rv
6345b7f49677d36bd07c5a10,EXP9a_JF,0,7d2de33f1c0e1235bff983d6b029de949199fc2bb2d69cf5074583daa421524c,2104.1458609104156,False,keypress,EXP9a_testRsp_rv,293,[],choice-response,Add,655e73d1a60ad4b436a1357f,2023-11-22 16:34:02-05:00,speech8,1052,48,DiscriminationTrials_rv
6345b7f49677d36bd07c5a10,EXP9a_JF,0,7d2de33f1c0e1235bff983d6b029de949199fc2bb2d69cf5074583daa421524c,2104.1458609104156,False,keypress,EXP9a_testRsp_rv,441,[],choice-response,At,655e73d1a60ad4b436a1357f,2023-11-22 16:34:02-05:00,speech2,1079,49,DiscriminationTrials_rv
6345b7f49677d36bd07c5a10,EXP9a_JF,0,7d2de33f1c0e1235bff983d6b029de949199fc2bb2d69cf5074583daa421524c,2104.1458609104156,False,keypress,EXP9a_testRsp_rv,324,[],choice-response,Add,655e73d1a60ad4b436a1357f,2023-11-22 16:34:02-05:00,speech6,1041,50,DiscriminationTrials_rv
6345b7f49677d36bd07c5a10,EXP9a_JF,0,7d2de33f1c0e1235bff983d6b029de949199fc2bb2d69cf5074583daa421524c,2104.1458609104156,False,keypress,EXP9a_testRsp_rv,538,[],choice-response,At,655e73d1a60ad4b436a1357f,2023-11-22 16:34:02-05:00,speech4,1210,51,DiscriminationTrials_rv
6345b7f49677d36bd07c5a10,EXP9a_JF,0,7d2de33f1c0e1235bff983d6b029de949199fc2bb2d69cf5074583daa421524c,2104.1458609104156,False,keypress,EXP9a_testRsp_rv,346,[],choice-response,At,655e73d1a60ad4b436a1357f,2023-11-22 16:34:02-05:00,speech1,963,52,DiscriminationTrials_rv
6345b7f49677d36bd07c5a10,EXP9a_JF,0,7d2de33f1c0e1235bff983d6b029de949199fc2bb2d69cf5074583daa421524c,2104.1458609104156,False,keypress,EXP9a_testRsp_rv,238,[],choice-response,Add,655e73d1a60ad4b436a1357f,2023-11-22 16:34:02-05:00,speech5,926,53,DiscriminationTrials_rv
6345b7f49677d36bd07c5a10,EXP9a_JF,0,7d2de33f1c0e1235bff983d6b029de949199fc2bb2d69cf5074583daa421524c,2104.1458609104156,False,keypress,EXP9a_testRsp_rv,363,[],choice-response,At,655e73d1a60ad4b436a1357f,2023-11-22 16:34:02-05:00,speech3,1002,54,DiscriminationTrials_rv
6345b7f49677d36bd07c5a10,EXP9a_JF,0,7d2de33f1c0e1235bff983d6b029de949199fc2bb2d69cf5074583daa421524c,2104.1458609104156,False,keypress,EXP9a_testRsp_rv,1045,[],choice-response,At,655e73d1a60ad4b436a1357f,2023-11-22 16:34:02-05:00,speech7,1779,55,DiscriminationTrials_rv
6345b7f49677d36bd07c5a10,EXP9a_JF,0,7d2de33f1c0e1235bff983d6b029de949199fc2bb2d69cf5074583daa421524c,2104.1458609104156,False,keypress,EXP9a_testRsp_rv,418,[],choice-response,Add,655e73d1a60ad4b436a1357f,2023-11-22 16:34:02-05:00,speech5,1111,56,DiscriminationTrials_rv
6345b7f49677d36bd07c5a10,EXP9a_JF,0,7d2de33f1c0e1235bff983d6b029de949199fc2bb2d69cf5074583daa421524c,2104.1458609104156,False,keypress,EXP9a_testRsp_rv,821,[],choice-response,At,655e73d1a60ad4b436a1357f,2023-11-22 16:34:02-05:00,speech3,1467,57,DiscriminationTrials_rv
6345b7f49677d36bd07c5a10,EXP9a_JF,0,7d2de33f1c0e1235bff983d6b029de949199fc2bb2d69cf5074583daa421524c,2104.1458609104156,False,keypress,EXP9a_testRsp_rv,447,[],choice-response,At,655e73d1a60ad4b436a1357f,2023-11-22 16:34:02-05:00,speech1,1071,58,DiscriminationTrials_rv
6345b7f49677d36bd07c5a10,EXP9a_JF,0,7d2de33f1c0e1235bff983d6b029de949199fc2bb2d69cf5074583daa421524c,2104.1458609104156,False,keypress,EXP9a_testRsp_rv,455,[],choice-response,Add,655e73d1a60ad4b436a1357f,2023-11-22 16:34:02-05:00,speech7,1188,59,DiscriminationTrials_rv
6345b7f49677d36bd07c5a10,EXP9a_JF,0,7d2de33f1c0e1235bff983d6b029de949199fc2bb2d69cf5074583daa421524c,2104.1458609104156,False,keypress,EXP9a_testRsp_rv,538,[],choice-response,At,655e73d1a60ad4b436a1357f,2023-11-22 16:34:02-05:00,speech2,1182,60,DiscriminationTrials_rv
6345b7f49677d36bd07c5a10,EXP9a_JF,0,7d2de33f1c0e1235bff983d6b029de949199fc2bb2d69cf5074583daa421524c,2104.1458609104156,False,keypress,EXP9a_testRsp_rv,313,[],choice-response,Add,655e73d1a60ad4b436a1357f,2023-11-22 16:34:02-05:00,speech4,977,61,DiscriminationTrials_rv
6345b7f49677d36bd07c5a10,EXP9a_JF,0,7d2de33f1c0e1235bff983d6b029de949199fc2bb2d69cf5074583daa421524c,2104.1458609104156,False,keypress,EXP9a_testRsp_rv,328,[],choice-response,Add,655e73d1a60ad4b436a1357f,2023-11-22 16:34:02-05:00,speech8,1083,62,DiscriminationTrials_rv
6345b7f49677d36bd07c5a10,EXP9a_JF,0,7d2de33f1c0e1235bff983d6b029de949199fc2bb2d69cf5074583daa421524c,2104.1458609104156,False,keypress,EXP9a_testRsp_rv,262,[],choice-response,Add,655e73d1a60ad4b436a1357f,2023-11-22 16:34:02-05:00,speech6,975,63,DiscriminationTrials_rv
6345b7f49677d36bd07c5a10,EXP9a_JF,0,7d2de33f1c0e1235bff983d6b029de949199fc2bb2d69cf5074583daa421524c,2104.1458609104156,False,keypress,EXP9a_testRsp_rv,807,[],choice-response,At,655e73d1a60ad4b436a1357f,2023-11-22 16:34:02-05:00,speech2,1449,64,DiscriminationTrials_rv
6345b7f49677d36bd07c5a10,EXP9a_JF,0,7d2de33f1c0e1235bff983d6b029de949199fc2bb2d69cf5074583daa421524c,2104.1458609104156,False,keypress,EXP9a_testRsp_rv,373,[],choice-response,At,655e73d1a60ad4b436a1357f,2023-11-22 16:34:02-05:00,speech1,991,65,DiscriminationTrials_rv
6345b7f49677d36bd07c5a10,EXP9a_JF,0,7d2de33f1c0e1235bff983d6b029de949199fc2bb2d69cf5074583daa421524c,2104.1458609104156,False,keypress,EXP9a_testRsp_rv,279,[],choice-response,Add,655e73d1a60ad4b436a1357f,2023-11-22 16:34:02-05:00,speech7,1011,66,DiscriminationTrials_rv
6345b7f49677d36bd07c5a10,EXP9a_JF,0,7d2de33f1c0e1235bff983d6b029de949199fc2bb2d69cf5074583daa421524c,2104.1458609104156,False,keypress,EXP9a_testRsp_rv,605,[],choice-response,At,655e73d1a60ad4b436a1357f,2023-11-22 16:34:02-05:00,speech3,1246,67,DiscriminationTrials_rv
6345b7f49677d36bd07c5a10,EXP9a_JF,0,7d2de33f1c0e1235bff983d6b029de949199fc2bb2d69cf5074583daa421524c,2104.1458609104156,False,keypress,EXP9a_testRsp_rv,431,[],choice-response,Add,655e73d1a60ad4b436a1357f,2023-11-22 16:34:02-05:00,speech4,1092,68,DiscriminationTrials_rv
6345b7f49677d36bd07c5a10,EXP9a_JF,0,7d2de33f1c0e1235bff983d6b029de949199fc2bb2d69cf5074583daa421524c,2104.1458609104156,False,keypress,EXP9a_testRsp_rv,238,[],choice-response,Add,655e73d1a60ad4b436a1357f,2023-11-22 16:34:02-05:00,speech8,995,69,DiscriminationTrials_rv
6345b7f49677d36bd07c5a10,EXP9a_JF,0,7d2de33f1c0e1235bff983d6b029de949199fc2bb2d69cf5074583daa421524c,2104.1458609104156,False,keypress,EXP9a_testRsp_rv,822,[],choice-response,Add,655e73d1a60ad4b436a1357f,2023-11-22 16:34:02-05:00,speech6,1530,70,DiscriminationTrials_rv
6345b7f49677d36bd07c5a10,EXP9a_JF,0,7d2de33f1c0e1235bff983d6b029de949199fc2bb2d69cf5074583daa421524c,2104.1458609104156,False,keypress,EXP9a_testRsp_rv,885,[],choice-response,At,655e73d1a60ad4b436a1357f,2023-11-22 16:34:02-05:00,speech5,1565,71,DiscriminationTrials_rv
6345b7f49677d36bd07c5a10,EXP9a_JF,0,7d2de33f1c0e1235bff983d6b029de949199fc2bb2d69cf5074583daa421524c,2104.1458609104156,False,keypress,EXP9a_testRsp_rv,1124,[],choice-response,Add,655e73d1a60ad4b436a1357f,2023-11-22 16:34:02-05:00,speech4,1788,72,DiscriminationTrials_rv
6345b7f49677d36bd07c5a10,EXP9a_JF,0,7d2de33f1c0e1235bff983d6b029de949199fc2bb2d69cf5074583daa421524c,2104.1458609104156,False,keypress,EXP9a_testRsp_rv,503,[],choice-response,At,655e73d1a60ad4b436a1357f,2023-11-22 16:34:02-05:00,speech1,1112,73,DiscriminationTrials_rv
6345b7f49677d36bd07c5a10,EXP9a_JF,0,7d2de33f1c0e1235bff983d6b029de949199fc2bb2d69cf5074583daa421524c,2104.1458609104156,False,keypress,EXP9a_testRsp_rv,367,[],choice-response,Add,655e73d1a60ad4b436a1357f,2023-11-22 16:34:02-05:00,speech8,1128,74,DiscriminationTrials_rv
6345b7f49677d36bd07c5a10,EXP9a_JF,0,7d2de33f1c0e1235bff983d6b029de949199fc2bb2d69cf5074583daa421524c,2104.1458609104156,False,keypress,EXP9a_testRsp_rv,362,[],choice-response,Add,655e73d1a60ad4b436a1357f,2023-11-22 16:34:02-05:00,speech7,1097,75,DiscriminationTrials_rv
6345b7f49677d36bd07c5a10,EXP9a_JF,0,7d2de33f1c0e1235bff983d6b029de949199fc2bb2d69cf5074583daa421524c,2104.1458609104156,False,keypress,EXP9a_testRsp_rv,509,[],choice-response,At,655e73d1a60ad4b436a1357f,2023-11-22 16:34:02-05:00,speech2,1151,76,DiscriminationTrials_rv
6345b7f49677d36bd07c5a10,EXP9a_JF,0,7d2de33f1c0e1235bff983d6b029de949199fc2bb2d69cf5074583daa421524c,2104.1458609104156,False,keypress,EXP9a_testRsp_rv,779,[],choice-response,At,655e73d1a60ad4b436a1357f,2023-11-22 16:34:02-05:00,speech5,1470,77,DiscriminationTrials_rv
6345b7f49677d36bd07c5a10,EXP9a_JF,0,7d2de33f1c0e1235bff983d6b029de949199fc2bb2d69cf5074583daa421524c,2104.1458609104156,False,keypress,EXP9a_testRsp_rv,425,[],choice-response,At,655e73d1a60ad4b436a1357f,2023-11-22 16:34:02-05:00,speech3,1068,78,DiscriminationTrials_rv
6345b7f49677d36bd07c5a10,EXP9a_JF,0,7d2de33f1c0e1235bff983d6b029de949199fc2bb2d69cf5074583daa421524c,2104.1458609104156,False,keypress,EXP9a_testRsp_rv,525,[],choice-response,At,655e73d1a60ad4b436a1357f,2023-11-22 16:34:02-05:00,speech6,1237,79,DiscriminationTrials_rv
6345b7f49677d36bd07c5a10,EXP9a_JF,0,7d2de33f1c0e1235bff983d6b029de949199fc2bb2d69cf5074583daa421524c,2104.1458609104156,False,keypress,EXP9a_testRsp_rv,414,[],choice-response,At,655e73d1a60ad4b436a1357f,2023-11-22 16:34:02-05:00,speech1,1029,80,DiscriminationTrials_rv
6345b7f49677d36bd07c5a10,EXP9a_JF,0,7d2de33f1c0e1235bff983d6b029de949199fc2bb2d69cf5074583daa421524c,2104.1458609104156,False,keypress,EXP9a_testRsp_rv,486,[],choice-response,At,655e73d1a60ad4b436a1357f,2023-11-22 16:34:02-05:00,speech5,1170,81,DiscriminationTrials_rv
6345b7f49677d36bd07c5a10,EXP9a_JF,0,7d2de33f1c0e1235bff983d6b029de949199fc2bb2d69cf5074583daa421524c,2104.1458609104156,False,keypress,EXP9a_testRsp_rv,384,[],choice-response,At,655e73d1a60ad4b436a1357f,2023-11-22 16:34:02-05:00,speech4,1056,82,DiscriminationTrials_rv
6345b7f49677d36bd07c5a10,EXP9a_JF,0,7d2de33f1c0e1235bff983d6b029de949199fc2bb2d69cf5074583daa421524c,2104.1458609104156,False,keypress,EXP9a_testRsp_rv,457,[],choice-response,At,655e73d1a60ad4b436a1357f,2023-11-22 16:34:02-05:00,speech2,1101,83,DiscriminationTrials_rv
6345b7f49677d36bd07c5a10,EXP9a_JF,0,7d2de33f1c0e1235bff983d6b029de949199fc2bb2d69cf5074583daa421524c,2104.1458609104156,False,keypress,EXP9a_testRsp_rv,709,[],choice-response,Add,655e73d1a60ad4b436a1357f,2023-11-22 16:34:02-05:00,speech6,1418,84,DiscriminationTrials_rv
6345b7f49677d36bd07c5a10,EXP9a_JF,0,7d2de33f1c0e1235bff983d6b029de949199fc2bb2d69cf5074583daa421524c,2104.1458609104156,False,keypress,EXP9a_testRsp_rv,269,[],choice-response,Add,655e73d1a60ad4b436a1357f,2023-11-22 16:34:02-05:00,speech8,1021,85,DiscriminationTrials_rv
6345b7f49677d36bd07c5a10,EXP9a_JF,0,7d2de33f1c0e1235bff983d6b029de949199fc2bb2d69cf5074583daa421524c,2104.1458609104156,False,keypress,EXP9a_testRsp_rv,272,[],choice-response,Add,655e73d1a60ad4b436a1357f,2023-11-22 16:34:02-05:00,speech7,1000,86,DiscriminationTrials_rv
6345b7f49677d36bd07c5a10,EXP9a_JF,0,7d2de33f1c0e1235bff983d6b029de949199fc2bb2d69cf5074583daa421524c,2104.1458609104156,False,keypress,EXP9a_testRsp_rv,509,[],choice-response,At,655e73d1a60ad4b436a1357f,2023-11-22 16:34:02-05:00,speech3,1150,87,DiscriminationTrials_rv
6345b7f49677d36bd07c5a10,EXP9a_JF,0,7d2de33f1c0e1235bff983d6b029de949199fc2bb2d69cf5074583daa421524c,2104.1458609104156,False,keypress,EXP9a_testRsp_rv,387,[],choice-response,Add,655e73d1a60ad4b436a1357f,2023-11-22 16:34:02-05:00,speech8,1142,88,DiscriminationTrials_rv
6345b7f49677d36bd07c5a10,EXP9a_JF,0,7d2de33f1c0e1235bff983d6b029de949199fc2bb2d69cf5074583daa421524c,2104.1458609104156,False,keypress,EXP9a_testRsp_rv,839,[],choice-response,Add,655e73d1a60ad4b436a1357f,2023-11-22 16:34:02-05:00,speech6,1556,89,DiscriminationTrials_rv
6345b7f49677d36bd07c5a10,EXP9a_JF,0,7d2de33f1c0e1235bff983d6b029de949199fc2bb2d69cf5074583daa421524c,2104.1458609104156,False,keypress,EXP9a_testRsp_rv,349,[],choice-response,At,655e73d1a60ad4b436a1357f,2023-11-22 16:34:02-05:00,speech1,963,90,DiscriminationTrials_rv
6345b7f49677d36bd07c5a10,EXP9a_JF,0,7d2de33f1c0e1235bff983d6b029de949199fc2bb2d69cf5074583daa421524c,2104.1458609104156,False,keypress,EXP9a_testRsp_rv,601,[],choice-response,At,655e73d1a60ad4b436a1357f,2023-11-22 16:34:02-05:00,speech2,1244,91,DiscriminationTrials_rv
6345b7f49677d36bd07c5a10,EXP9a_JF,0,7d2de33f1c0e1235bff983d6b029de949199fc2bb2d69cf5074583daa421524c,2104.1458609104156,False,keypress,EXP9a_testRsp_rv,390,[],choice-response,At,655e73d1a60ad4b436a1357f,2023-11-22 16:34:02-05:00,speech3,1033,92,DiscriminationTrials_rv
6345b7f49677d36bd07c5a10,EXP9a_JF,0,7d2de33f1c0e1235bff983d6b029de949199fc2bb2d69cf5074583daa421524c,2104.1458609104156,False,keypress,EXP9a_testRsp_rv,392,[],choice-response,At,655e73d1a60ad4b436a1357f,2023-11-22 16:34:02-05:00,speech5,1078,93,DiscriminationTrials_rv
6345b7f49677d36bd07c5a10,EXP9a_JF,0,7d2de33f1c0e1235bff983d6b029de949199fc2bb2d69cf5074583daa421524c,2104.1458609104156,False,keypress,EXP9a_testRsp_rv,333,[],choice-response,At,655e73d1a60ad4b436a1357f,2023-11-22 16:34:02-05:00,speech7,1069,94,DiscriminationTrials_rv
6345b7f49677d36bd07c5a10,EXP9a_JF,0,7d2de33f1c0e1235bff983d6b029de949199fc2bb2d69cf5074583daa421524c,2104.1458609104156,False,keypress,EXP9a_testRsp_rv,872,[],choice-response,At,655e73d1a60ad4b436a1357f,2023-11-22 16:34:02-05:00,speech4,1531,95,DiscriminationTrials_rv
6345b7f49677d36bd07c5a10,EXP9a_JF,0,7d2de33f1c0e1235bff983d6b029de949199fc2bb2d69cf5074583daa421524c,2104.1458609104156,False,keypress,EXP9a_testRsp_rv,923,[],choice-response,At,655e73d1a60ad4b436a1357f,2023-11-22 16:34:02-05:00,speech4,1585,96,DiscriminationTrials_rv
6345b7f49677d36bd07c5a10,EXP9a_JF,0,7d2de33f1c0e1235bff983d6b029de949199fc2bb2d69cf5074583daa421524c,2104.1458609104156,False,keypress,EXP9a_testRsp_rv,650,[],choice-response,At,655e73d1a60ad4b436a1357f,2023-11-22 16:34:02-05:00,speech5,1345,97,DiscriminationTrials_rv
6345b7f49677d36bd07c5a10,EXP9a_JF,0,7d2de33f1c0e1235bff983d6b029de949199fc2bb2d69cf5074583daa421524c,2104.1458609104156,False,keypress,EXP9a_testRsp_rv,447,[],choice-response,At,655e73d1a60ad4b436a1357f,2023-11-22 16:34:02-05:00,speech1,1065,98,DiscriminationTrials_rv
6345b7f49677d36bd07c5a10,EXP9a_JF,0,7d2de33f1c0e1235bff983d6b029de949199fc2bb2d69cf5074583daa421524c,2104.1458609104156,False,keypress,EXP9a_testRsp_rv,498,[],choice-response,At,655e73d1a60ad4b436a1357f,2023-11-22 16:34:02-05:00,speech3,1136,99,DiscriminationTrials_rv
6345b7f49677d36bd07c5a10,EXP9a_JF,0,7d2de33f1c0e1235bff983d6b029de949199fc2bb2d69cf5074583daa421524c,2104.1458609104156,False,keypress,EXP9a_testRsp_rv,349,[],choice-response,At,655e73d1a60ad4b436a1357f,2023-11-22 16:34:02-05:00,speech2,987,100,DiscriminationTrials_rv
6345b7f49677d36bd07c5a10,EXP9a_JF,0,7d2de33f1c0e1235bff983d6b029de949199fc2bb2d69cf5074583daa421524c,2104.1458609104156,False,keypress,EXP9a_testRsp_rv,235,[],choice-response,Add,655e73d1a60ad4b436a1357f,2023-11-22 16:34:02-05:00,speech6,947,101,DiscriminationTrials_rv
6345b7f49677d36bd07c5a10,EXP9a_JF,0,7d2de33f1c0e1235bff983d6b029de949199fc2bb2d69cf5074583daa421524c,2104.1458609104156,False,keypress,EXP9a_testRsp_rv,351,[],choice-response,Add,655e73d1a60ad4b436a1357f,2023-11-22 16:34:02-05:00,speech8,1106,102,DiscriminationTrials_rv
6345b7f49677d36bd07c5a10,EXP9a_JF,0,7d2de33f1c0e1235bff983d6b029de949199fc2bb2d69cf5074583daa421524c,2104.1458609104156,False,keypress,EXP9a_testRsp_rv,1272,[],choice-response,Add,655e73d1a60ad4b436a1357f,2023-11-22 16:34:02-05:00,speech7,2005,103,DiscriminationTrials_rv
6345b7f49677d36bd07c5a10,EXP9a_JF,0,7d2de33f1c0e1235bff983d6b029de949199fc2bb2d69cf5074583daa421524c,2104.1458609104156,False,keypress,EXP9a_testRsp_rv,460,[],choice-response,Add,655e73d1a60ad4b436a1357f,2023-11-22 16:34:02-05:00,speech8,1215,104,DiscriminationTrials_rv
6345b7f49677d36bd07c5a10,EXP9a_JF,0,7d2de33f1c0e1235bff983d6b029de949199fc2bb2d69cf5074583daa421524c,2104.1458609104156,False,keypress,EXP9a_testRsp_rv,868,[],choice-response,Add,655e73d1a60ad4b436a1357f,2023-11-22 16:34:02-05:00,speech6,1575,105,DiscriminationTrials_rv
6345b7f49677d36bd07c5a10,EXP9a_JF,0,7d2de33f1c0e1235bff983d6b029de949199fc2bb2d69cf5074583daa421524c,2104.1458609104156,False,keypress,EXP9a_testRsp_rv,498,[],choice-response,At,655e73d1a60ad4b436a1357f,2023-11-22 16:34:02-05:00,speech4,1156,106,DiscriminationTrials_rv
6345b7f49677d36bd07c5a10,EXP9a_JF,0,7d2de33f1c0e1235bff983d6b029de949199fc2bb2d69cf5074583daa421524c,2104.1458609104156,False,keypress,EXP9a_testRsp_rv,693,[],choice-response,At,655e73d1a60ad4b436a1357f,2023-11-22 16:34:02-05:00,speech5,1378,107,DiscriminationTrials_rv
6345b7f49677d36bd07c5a10,EXP9a_JF,0,7d2de33f1c0e1235bff983d6b029de949199fc2bb2d69cf5074583daa421524c,2104.1458609104156,False,keypress,EXP9a_testRsp_rv,489,[],choice-response,At,655e73d1a60ad4b436a1357f,2023-11-22 16:34:02-05:00,speech1,1135,108,DiscriminationTrials_rv
6345b7f49677d36bd07c5a10,EXP9a_JF,0,7d2de33f1c0e1235bff983d6b029de949199fc2bb2d69cf5074583daa421524c,2104.1458609104156,False,keypress,EXP9a_testRsp_rv,271,[],choice-response,At,655e73d1a60ad4b436a1357f,2023-11-22 16:34:02-05:00,speech3,917,109,DiscriminationTrials_rv
6345b7f49677d36bd07c5a10,EXP9a_JF,0,7d2de33f1c0e1235bff983d6b029de949199fc2bb2d69cf5074583daa421524c,2104.1458609104156,False,keypress,EXP9a_testRsp_rv,1121,[],choice-response,Add,655e73d1a60ad4b436a1357f,2023-11-22 16:34:02-05:00,speech7,1857,110,DiscriminationTrials_rv
6345b7f49677d36bd07c5a10,EXP9a_JF,0,7d2de33f1c0e1235bff983d6b029de949199fc2bb2d69cf5074583daa421524c,2104.1458609104156,False,keypress,EXP9a_testRsp_rv,668,[],choice-response,At,655e73d1a60ad4b436a1357f,2023-11-22 16:34:02-05:00,speech2,1299,111,DiscriminationTrials_rv
6345b7f49677d36bd07c5a10,EXP9a_JF,0,7d2de33f1c0e1235bff983d6b029de949199fc2bb2d69cf5074583daa421524c,2104.1458609104156,False,keypress,EXP9a_testRsp_rv,457,[],choice-response,At,655e73d1a60ad4b436a1357f,2023-11-22 16:34:02-05:00,speech5,1144,112,DiscriminationTrials_rv
6345b7f49677d36bd07c5a10,EXP9a_JF,0,7d2de33f1c0e1235bff983d6b029de949199fc2bb2d69cf5074583daa421524c,2104.1458609104156,False,keypress,EXP9a_testRsp_rv,263,[],choice-response,Add,655e73d1a60ad4b436a1357f,2023-11-22 16:34:02-05:00,speech7,996,113,DiscriminationTrials_rv
6345b7f49677d36bd07c5a10,EXP9a_JF,0,7d2de33f1c0e1235bff983d6b029de949199fc2bb2d69cf5074583daa421524c,2104.1458609104156,False,keypress,EXP9a_testRsp_rv,327,[],choice-response,At,655e73d1a60ad4b436a1357f,2023-11-22 16:34:02-05:00,speech1,940,114,DiscriminationTrials_rv
6345b7f49677d36bd07c5a10,EXP9a_JF,0,7d2de33f1c0e1235bff983d6b029de949199fc2bb2d69cf5074583daa421524c,2104.1458609104156,False,keypress,EXP9a_testRsp_rv,515,[],choice-response,At,655e73d1a60ad4b436a1357f,2023-11-22 16:34:02-05:00,speech3,1154,115,DiscriminationTrials_rv
6345b7f49677d36bd07c5a10,EXP9a_JF,0,7d2de33f1c0e1235bff983d6b029de949199fc2bb2d69cf5074583daa421524c,2104.1458609104156,False,keypress,EXP9a_testRsp_rv,987,[],choice-response,Add,655e73d1a60ad4b436a1357f,2023-11-22 16:34:02-05:00,speech6,1701,116,DiscriminationTrials_rv
6345b7f49677d36bd07c5a10,EXP9a_JF,0,7d2de33f1c0e1235bff983d6b029de949199fc2bb2d69cf5074583daa421524c,2104.1458609104156,False,keypress,EXP9a_testRsp_rv,558,[],choice-response,Add,655e73d1a60ad4b436a1357f,2023-11-22 16:34:02-05:00,speech8,1307,117,DiscriminationTrials_rv
6345b7f49677d36bd07c5a10,EXP9a_JF,0,7d2de33f1c0e1235bff983d6b029de949199fc2bb2d69cf5074583daa421524c,2104.1458609104156,False,keypress,EXP9a_testRsp_rv,523,[],choice-response,At,655e73d1a60ad4b436a1357f,2023-11-22 16:34:02-05:00,speech4,1185,118,DiscriminationTrials_rv
6345b7f49677d36bd07c5a10,EXP9a_JF,0,7d2de33f1c0e1235bff983d6b029de949199fc2bb2d69cf5074583daa421524c,2104.1458609104156,False,keypress,EXP9a_testRsp_rv,305,[],choice-response,At,655e73d1a60ad4b436a1357f,2023-11-22 16:34:02-05:00,speech2,944,119,DiscriminationTrials_rv
6345b7f49677d36bd07c5a10,EXP9a_JF,0,7d2de33f1c0e1235bff983d6b029de949199fc2bb2d69cf5074583daa421524c,2104.1458609104156,False,keypress,EXP9a_testRsp_rv,258,[],choice-response,Add,655e73d1a60ad4b436a1357f,2023-11-22 16:34:02-05:00,speech8,1013,120,DiscriminationTrials_rv
6345b7f49677d36bd07c5a10,EXP9a_JF,0,7d2de33f1c0e1235bff983d6b029de949199fc2bb2d69cf5074583daa421524c,2104.1458609104156,False,keypress,EXP9a_testRsp_rv,454,[],choice-response,At,655e73d1a60ad4b436a1357f,2023-11-22 16:34:02-05:00,speech3,1096,121,DiscriminationTrials_rv
6345b7f49677d36bd07c5a10,EXP9a_JF,0,7d2de33f1c0e1235bff983d6b029de949199fc2bb2d69cf5074583daa421524c,2104.1458609104156,False,keypress,EXP9a_testRsp_rv,372,[],choice-response,At,655e73d1a60ad4b436a1357f,2023-11-22 16:34:02-05:00,speech4,1037,122,DiscriminationTrials_rv
6345b7f49677d36bd07c5a10,EXP9a_JF,0,7d2de33f1c0e1235bff983d6b029de949199fc2bb2d69cf5074583daa421524c,2104.1458609104156,False,keypress,EXP9a_testRsp_rv,577,[],choice-response,Add,655e73d1a60ad4b436a1357f,2023-11-22 16:34:02-05:00,speech7,1309,123,DiscriminationTrials_rv
6345b7f49677d36bd07c5a10,EXP9a_JF,0,7d2de33f1c0e1235bff983d6b029de949199fc2bb2d69cf5074583daa421524c,2104.1458609104156,False,keypress,EXP9a_testRsp_rv,452,[],choice-response,At,655e73d1a60ad4b436a1357f,2023-11-22 16:34:02-05:00,speech1,1069,124,DiscriminationTrials_rv
6345b7f49677d36bd07c5a10,EXP9a_JF,0,7d2de33f1c0e1235bff983d6b029de949199fc2bb2d69cf5074583daa421524c,2104.1458609104156,False,keypress,EXP9a_testRsp_rv,360,[],choice-response,At,655e73d1a60ad4b436a1357f,2023-11-22 16:34:02-05:00,speech2,996,125,DiscriminationTrials_rv
6345b7f49677d36bd07c5a10,EXP9a_JF,0,7d2de33f1c0e1235bff983d6b029de949199fc2bb2d69cf5074583daa421524c,2104.1458609104156,False,keypress,EXP9a_testRsp_rv,243,[],choice-response,Add,655e73d1a60ad4b436a1357f,2023-11-22 16:34:02-05:00,speech6,947,126,DiscriminationTrials_rv
6345b7f49677d36bd07c5a10,EXP9a_JF,0,7d2de33f1c0e1235bff983d6b029de949199fc2bb2d69cf5074583daa421524c,2104.1458609104156,False,keypress,EXP9a_testRsp_rv,1124,[],choice-response,At,655e73d1a60ad4b436a1357f,2023-11-22 16:34:02-05:00,speech5,1813,127,DiscriminationTrials_rv
6345b7f49677d36bd07c5a10,EXP9a_JF,0,7d2de33f1c0e1235bff983d6b029de949199fc2bb2d69cf5074583daa421524c,2104.1458609104156,False,keypress,EXP9a_testRsp_rv,405,[],choice-response,At,655e73d1a60ad4b436a1357f,2023-11-22 16:34:02-05:00,speech2,1041,128,DiscriminationTrials_rv
6345b7f49677d36bd07c5a10,EXP9a_JF,0,7d2de33f1c0e1235bff983d6b029de949199fc2bb2d69cf5074583daa421524c,2104.1458609104156,False,keypress,EXP9a_testRsp_rv,300,[],choice-response,Add,655e73d1a60ad4b436a1357f,2023-11-22 16:34:02-05:00,speech7,1031,129,DiscriminationTrials_rv
6345b7f49677d36bd07c5a10,EXP9a_JF,0,7d2de33f1c0e1235bff983d6b029de949199fc2bb2d69cf5074583daa421524c,2104.1458609104156,False,keypress,EXP9a_testRsp_rv,698,[],choice-response,Add,655e73d1a60ad4b436a1357f,2023-11-22 16:34:02-05:00,speech4,1365,130,DiscriminationTrials_rv
6345b7f49677d36bd07c5a10,EXP9a_JF,0,7d2de33f1c0e1235bff983d6b029de949199fc2bb2d69cf5074583daa421524c,2104.1458609104156,False,keypress,EXP9a_testRsp_rv,491,[],choice-response,At,655e73d1a60ad4b436a1357f,2023-11-22 16:34:02-05:00,speech3,1132,131,DiscriminationTrials_rv
6345b7f49677d36bd07c5a10,EXP9a_JF,0,7d2de33f1c0e1235bff983d6b029de949199fc2bb2d69cf5074583daa421524c,2104.1458609104156,False,keypress,EXP9a_testRsp_rv,853,[],choice-response,At,655e73d1a60ad4b436a1357f,2023-11-22 16:34:02-05:00,speech1,1471,132,DiscriminationTrials_rv
6345b7f49677d36bd07c5a10,EXP9a_JF,0,7d2de33f1c0e1235bff983d6b029de949199fc2bb2d69cf5074583daa421524c,2104.1458609104156,False,keypress,EXP9a_testRsp_rv,517,[],choice-response,At,655e73d1a60ad4b436a1357f,2023-11-22 16:34:02-05:00,speech5,1211,133,DiscriminationTrials_rv
6345b7f49677d36bd07c5a10,EXP9a_JF,0,7d2de33f1c0e1235bff983d6b029de949199fc2bb2d69cf5074583daa421524c,2104.1458609104156,False,keypress,EXP9a_testRsp_rv,436,[],choice-response,At,655e73d1a60ad4b436a1357f,2023-11-22 16:34:02-05:00,speech6,1138,134,DiscriminationTrials_rv
6345b7f49677d36bd07c5a10,EXP9a_JF,0,7d2de33f1c0e1235bff983d6b029de949199fc2bb2d69cf5074583daa421524c,2104.1458609104156,False,keypress,EXP9a_testRsp_rv,365,[],choice-response,Add,655e73d1a60ad4b436a1357f,2023-11-22 16:34:02-05:00,speech8,1121,135,DiscriminationTrials_rv
6345b7f49677d36bd07c5a10,EXP9a_JF,0,7d2de33f1c0e1235bff983d6b029de949199fc2bb2d69cf5074583daa421524c,2104.1458609104156,False,keypress,EXP9a_testRsp_rv,702,[],choice-response,At,655e73d1a60ad4b436a1357f,2023-11-22 16:34:02-05:00,speech5,1391,136,DiscriminationTrials_rv
6345b7f49677d36bd07c5a10,EXP9a_JF,0,7d2de33f1c0e1235bff983d6b029de949199fc2bb2d69cf5074583daa421524c,2104.1458609104156,False,keypress,EXP9a_testRsp_rv,518,[],choice-response,Add,655e73d1a60ad4b436a1357f,2023-11-22 16:34:02-05:00,speech6,1235,137,DiscriminationTrials_rv
6345b7f49677d36bd07c5a10,EXP9a_JF,0,7d2de33f1c0e1235bff983d6b029de949199fc2bb2d69cf5074583daa421524c,2104.1458609104156,False,keypress,EXP9a_testRsp_rv,794,[],choice-response,At,655e73d1a60ad4b436a1357f,2023-11-22 16:34:02-05:00,speech3,1431,138,DiscriminationTrials_rv
6345b7f49677d36bd07c5a10,EXP9a_JF,0,7d2de33f1c0e1235bff983d6b029de949199fc2bb2d69cf5074583daa421524c,2104.1458609104156,False,keypress,EXP9a_testRsp_rv,527,[],choice-response,At,655e73d1a60ad4b436a1357f,2023-11-22 16:34:02-05:00,speech1,1145,139,DiscriminationTrials_rv
6345b7f49677d36bd07c5a10,EXP9a_JF,0,7d2de33f1c0e1235bff983d6b029de949199fc2bb2d69cf5074583daa421524c,2104.1458609104156,False,keypress,EXP9a_testRsp_rv,451,[],choice-response,At,655e73d1a60ad4b436a1357f,2023-11-22 16:34:02-05:00,speech4,1116,140,DiscriminationTrials_rv
6345b7f49677d36bd07c5a10,EXP9a_JF,0,7d2de33f1c0e1235bff983d6b029de949199fc2bb2d69cf5074583daa421524c,2104.1458609104156,False,keypress,EXP9a_testRsp_rv,374,[],choice-response,At,655e73d1a60ad4b436a1357f,2023-11-22 16:34:02-05:00,speech2,1011,141,DiscriminationTrials_rv
6345b7f49677d36bd07c5a10,EXP9a_JF,0,7d2de33f1c0e1235bff983d6b029de949199fc2bb2d69cf5074583daa421524c,2104.1458609104156,False,keypress,EXP9a_testRsp_rv,598,[],choice-response,Add,655e73d1a60ad4b436a1357f,2023-11-22 16:34:02-05:00,speech7,1331,142,DiscriminationTrials_rv
6345b7f49677d36bd07c5a10,EXP9a_JF,0,7d2de33f1c0e1235bff983d6b029de949199fc2bb2d69cf5074583daa421524c,2104.1458609104156,False,keypress,EXP9a_testRsp_rv,863,[],choice-response,Add,655e73d1a60ad4b436a1357f,2023-11-22 16:34:02-05:00,speech8,1620,143,DiscriminationTrials_rv
6345b7f49677d36bd07c5a10,EXP9a_JF,0,7d2de33f1c0e1235bff983d6b029de949199fc2bb2d69cf5074583daa421524c,2104.1458609104156,False,keypress,EXP9a_testRsp_rv,747,[],choice-response,At,655e73d1a60ad4b436a1357f,2023-11-22 16:34:02-05:00,speech2,1388,144,DiscriminationTrials_rv
6345b7f49677d36bd07c5a10,EXP9a_JF,0,7d2de33f1c0e1235bff983d6b029de949199fc2bb2d69cf5074583daa421524c,2104.1458609104156,False,keypress,EXP9a_testRsp_rv,761,[],choice-response,At,655e73d1a60ad4b436a1357f,2023-11-22 16:34:02-05:00,speech5,1450,145,DiscriminationTrials_rv
6345b7f49677d36bd07c5a10,EXP9a_JF,0,7d2de33f1c0e1235bff983d6b029de949199fc2bb2d69cf5074583daa421524c,2104.1458609104156,False,keypress,EXP9a_testRsp_rv,1188,[],choice-response,At,655e73d1a60ad4b436a1357f,2023-11-22 16:34:02-05:00,speech3,1830,146,DiscriminationTrials_rv
6345b7f49677d36bd07c5a10,EXP9a_JF,0,7d2de33f1c0e1235bff983d6b029de949199fc2bb2d69cf5074583daa421524c,2104.1458609104156,False,keypress,EXP9a_testRsp_rv,478,[],choice-response,At,655e73d1a60ad4b436a1357f,2023-11-22 16:34:02-05:00,speech1,1097,147,DiscriminationTrials_rv
6345b7f49677d36bd07c5a10,EXP9a_JF,0,7d2de33f1c0e1235bff983d6b029de949199fc2bb2d69cf5074583daa421524c,2104.1458609104156,False,keypress,EXP9a_testRsp_rv,593,[],choice-response,Add,655e73d1a60ad4b436a1357f,2023-11-22 16:34:02-05:00,speech7,1321,148,DiscriminationTrials_rv
6345b7f49677d36bd07c5a10,EXP9a_JF,0,7d2de33f1c0e1235bff983d6b029de949199fc2bb2d69cf5074583daa421524c,2104.1458609104156,False,keypress,EXP9a_testRsp_rv,1350,[],choice-response,Add,655e73d1a60ad4b436a1357f,2023-11-22 16:34:02-05:00,speech4,2010,149,DiscriminationTrials_rv
6345b7f49677d36bd07c5a10,EXP9a_JF,0,7d2de33f1c0e1235bff983d6b029de949199fc2bb2d69cf5074583daa421524c,2104.1458609104156,False,keypress,EXP9a_testRsp_rv,728,[],choice-response,Add,655e73d1a60ad4b436a1357f,2023-11-22 16:34:02-05:00,speech8,1487,150,DiscriminationTrials_rv
6345b7f49677d36bd07c5a10,EXP9a_JF,0,7d2de33f1c0e1235bff983d6b029de949199fc2bb2d69cf5074583daa421524c,2104.1458609104156,False,keypress,EXP9a_testRsp_rv,1285,[],choice-response,Add,655e73d1a60ad4b436a1357f,2023-11-22 16:34:02-05:00,speech6,1992,151,DiscriminationTrials_rv
6345b7f49677d36bd07c5a10,EXP9a_JF,0,7d2de33f1c0e1235bff983d6b029de949199fc2bb2d69cf5074583daa421524c,2104.1458609104156,False,keypress,EXP9a_testRsp_rv,4021,[],choice-response,At,655e73d1a60ad4b436a1357f,2023-11-22 16:34:02-05:00,speech4,4679,152,DiscriminationTrials_rv
6345b7f49677d36bd07c5a10,EXP9a_JF,0,7d2de33f1c0e1235bff983d6b029de949199fc2bb2d69cf5074583daa421524c,2104.1458609104156,False,keypress,EXP9a_testRsp_rv,3900,[],choice-response,At,655e73d1a60ad4b436a1357f,2023-11-22 16:34:02-05:00,speech8,4657,153,DiscriminationTrials_rv
6345b7f49677d36bd07c5a10,EXP9a_JF,0,7d2de33f1c0e1235bff983d6b029de949199fc2bb2d69cf5074583daa421524c,2104.1458609104156,False,keypress,EXP9a_testRsp_rv,824,[],choice-response,Add,655e73d1a60ad4b436a1357f,2023-11-22 16:34:02-05:00,speech7,1562,154,DiscriminationTrials_rv
6345b7f49677d36bd07c5a10,EXP9a_JF,0,7d2de33f1c0e1235bff983d6b029de949199fc2bb2d69cf5074583daa421524c,2104.1458609104156,False,keypress,EXP9a_testRsp_rv,4553,[],choice-response,Add,655e73d1a60ad4b436a1357f,2023-11-22 16:34:02-05:00,speech6,5265,155,DiscriminationTrials_rv
6345b7f49677d36bd07c5a10,EXP9a_JF,0,7d2de33f1c0e1235bff983d6b029de949199fc2bb2d69cf5074583daa421524c,2104.1458609104156,False,keypress,EXP9a_testRsp_rv,924,[],choice-response,Add,655e73d1a60ad4b436a1357f,2023-11-22 16:34:02-05:00,speech3,1565,156,DiscriminationTrials_rv
6345b7f49677d36bd07c5a10,EXP9a_JF,0,7d2de33f1c0e1235bff983d6b029de949199fc2bb2d69cf5074583daa421524c,2104.1458609104156,False,keypress,EXP9a_testRsp_rv,528,[],choice-response,Add,655e73d1a60ad4b436a1357f,2023-11-22 16:34:02-05:00,speech1,1145,157,DiscriminationTrials_rv
6345b7f49677d36bd07c5a10,EXP9a_JF,0,7d2de33f1c0e1235bff983d6b029de949199fc2bb2d69cf5074583daa421524c,2104.1458609104156,False,keypress,EXP9a_testRsp_rv,1639,[],choice-response,Add,655e73d1a60ad4b436a1357f,2023-11-22 16:34:02-05:00,speech5,2328,158,DiscriminationTrials_rv
6345b7f49677d36bd07c5a10,EXP9a_JF,0,7d2de33f1c0e1235bff983d6b029de949199fc2bb2d69cf5074583daa421524c,2104.1458609104156,False,keypress,EXP9a_testRsp_rv,926,[],choice-response,Add,655e73d1a60ad4b436a1357f,2023-11-22 16:34:02-05:00,speech2,1568,159,DiscriminationTrials_rv
6345b7f49677d36bd07c5a10,EXP9a_JF,0,7d2de33f1c0e1235bff983d6b029de949199fc2bb2d69cf5074583daa421524c,2104.1458609104156,False,keypress,EXP9a_testRsp_rv,377,[],choice-response,Add,655e73d1a60ad4b436a1357f,2023-11-22 16:34:02-05:00,speech8,1135,160,DiscriminationTrials_rv
6345b7f49677d36bd07c5a10,EXP9a_JF,0,7d2de33f1c0e1235bff983d6b029de949199fc2bb2d69cf5074583daa421524c,2104.1458609104156,False,keypress,EXP9a_testRsp_rv,771,[],choice-response,At,655e73d1a60ad4b436a1357f,2023-11-22 16:34:02-05:00,speech4,1432,161,DiscriminationTrials_rv
6345b7f49677d36bd07c5a10,EXP9a_JF,0,7d2de33f1c0e1235bff983d6b029de949199fc2bb2d69cf5074583daa421524c,2104.1458609104156,False,keypress,EXP9a_testRsp_rv,304,[],choice-response,Add,655e73d1a60ad4b436a1357f,2023-11-22 16:34:02-05:00,speech7,1036,162,DiscriminationTrials_rv
6345b7f49677d36bd07c5a10,EXP9a_JF,0,7d2de33f1c0e1235bff983d6b029de949199fc2bb2d69cf5074583daa421524c,2104.1458609104156,False,keypress,EXP9a_testRsp_rv,316,[],choice-response,Add,655e73d1a60ad4b436a1357f,2023-11-22 16:34:02-05:00,speech2,954,163,DiscriminationTrials_rv
6345b7f49677d36bd07c5a10,EXP9a_JF,0,7d2de33f1c0e1235bff983d6b029de949199fc2bb2d69cf5074583daa421524c,2104.1458609104156,False,keypress,EXP9a_testRsp_rv,840,[],choice-response,Add,655e73d1a60ad4b436a1357f,2023-11-22 16:34:02-05:00,speech5,1522,164,DiscriminationTrials_rv
6345b7f49677d36bd07c5a10,EXP9a_JF,0,7d2de33f1c0e1235bff983d6b029de949199fc2bb2d69cf5074583daa421524c,2104.1458609104156,False,keypress,EXP9a_testRsp_rv,738,[],choice-response,At,655e73d1a60ad4b436a1357f,2023-11-22 16:34:02-05:00,speech3,1374,165,DiscriminationTrials_rv
6345b7f49677d36bd07c5a10,EXP9a_JF,0,7d2de33f1c0e1235bff983d6b029de949199fc2bb2d69cf5074583daa421524c,2104.1458609104156,False,keypress,EXP9a_testRsp_rv,435,[],choice-response,At,655e73d1a60ad4b436a1357f,2023-11-22 16:34:02-05:00,speech1,1054,166,DiscriminationTrials_rv
6345b7f49677d36bd07c5a10,EXP9a_JF,0,7d2de33f1c0e1235bff983d6b029de949199fc2bb2d69cf5074583daa421524c,2104.1458609104156,False,keypress,EXP9a_testRsp_rv,431,[],choice-response,Add,655e73d1a60ad4b436a1357f,2023-11-22 16:34:02-05:00,speech6,1144,167,DiscriminationTrials_rv
6345b7f49677d36bd07c5a10,EXP9a_JF,0,7d2de33f1c0e1235bff983d6b029de949199fc2bb2d69cf5074583daa421524c,2104.1458609104156,False,keypress,EXP9a_testRsp_rv,393,[],choice-response,Add,655e73d1a60ad4b436a1357f,2023-11-22 16:34:02-05:00,speech4,1061,168,DiscriminationTrials_rv
6345b7f49677d36bd07c5a10,EXP9a_JF,0,7d2de33f1c0e1235bff983d6b029de949199fc2bb2d69cf5074583daa421524c,2104.1458609104156,False,keypress,EXP9a_testRsp_rv,592,[],choice-response,Add,655e73d1a60ad4b436a1357f,2023-11-22 16:34:02-05:00,speech5,1283,169,DiscriminationTrials_rv
6345b7f49677d36bd07c5a10,EXP9a_JF,0,7d2de33f1c0e1235bff983d6b029de949199fc2bb2d69cf5074583daa421524c,2104.1458609104156,False,keypress,EXP9a_testRsp_rv,862,[],choice-response,Add,655e73d1a60ad4b436a1357f,2023-11-22 16:34:02-05:00,speech1,1474,170,DiscriminationTrials_rv
6345b7f49677d36bd07c5a10,EXP9a_JF,0,7d2de33f1c0e1235bff983d6b029de949199fc2bb2d69cf5074583daa421524c,2104.1458609104156,False,keypress,EXP9a_testRsp_rv,337,[],choice-response,Add,655e73d1a60ad4b436a1357f,2023-11-22 16:34:02-05:00,speech8,1091,171,DiscriminationTrials_rv
6345b7f49677d36bd07c5a10,EXP9a_JF,0,7d2de33f1c0e1235bff983d6b029de949199fc2bb2d69cf5074583daa421524c,2104.1458609104156,False,keypress,EXP9a_testRsp_rv,576,[],choice-response,At,655e73d1a60ad4b436a1357f,2023-11-22 16:34:02-05:00,speech6,1283,172,DiscriminationTrials_rv
6345b7f49677d36bd07c5a10,EXP9a_JF,0,7d2de33f1c0e1235bff983d6b029de949199fc2bb2d69cf5074583daa421524c,2104.1458609104156,False,keypress,EXP9a_testRsp_rv,406,[],choice-response,At,655e73d1a60ad4b436a1357f,2023-11-22 16:34:02-05:00,speech3,1045,173,DiscriminationTrials_rv
6345b7f49677d36bd07c5a10,EXP9a_JF,0,7d2de33f1c0e1235bff983d6b029de949199fc2bb2d69cf5074583daa421524c,2104.1458609104156,False,keypress,EXP9a_testRsp_rv,212,[],choice-response,At,655e73d1a60ad4b436a1357f,2023-11-22 16:34:02-05:00,speech2,852,174,DiscriminationTrials_rv
6345b7f49677d36bd07c5a10,EXP9a_JF,0,7d2de33f1c0e1235bff983d6b029de949199fc2bb2d69cf5074583daa421524c,2104.1458609104156,False,keypress,EXP9a_testRsp_rv,225,[],choice-response,Add,655e73d1a60ad4b436a1357f,2023-11-22 16:34:02-05:00,speech7,954,175,DiscriminationTrials_rv
6345b7f49677d36bd07c5a10,EXP9a_JF,0,7d2de33f1c0e1235bff983d6b029de949199fc2bb2d69cf5074583daa421524c,2104.1458609104156,False,keypress,EXP9a_testRsp_rv,796,[],choice-response,At,655e73d1a60ad4b436a1357f,2023-11-22 16:34:02-05:00,speech2,1439,176,DiscriminationTrials_rv
6345b7f49677d36bd07c5a10,EXP9a_JF,0,7d2de33f1c0e1235bff983d6b029de949199fc2bb2d69cf5074583daa421524c,2104.1458609104156,False,keypress,EXP9a_testRsp_rv,787,[],choice-response,Add,655e73d1a60ad4b436a1357f,2023-11-22 16:34:02-05:00,speech7,1517,177,DiscriminationTrials_rv
6345b7f49677d36bd07c5a10,EXP9a_JF,0,7d2de33f1c0e1235bff983d6b029de949199fc2bb2d69cf5074583daa421524c,2104.1458609104156,False,keypress,EXP9a_testRsp_rv,470,[],choice-response,At,655e73d1a60ad4b436a1357f,2023-11-22 16:34:02-05:00,speech1,1088,178,DiscriminationTrials_rv
6345b7f49677d36bd07c5a10,EXP9a_JF,0,7d2de33f1c0e1235bff983d6b029de949199fc2bb2d69cf5074583daa421524c,2104.1458609104156,False,keypress,EXP9a_testRsp_rv,557,[],choice-response,At,655e73d1a60ad4b436a1357f,2023-11-22 16:34:02-05:00,speech3,1197,179,DiscriminationTrials_rv
6345b7f49677d36bd07c5a10,EXP9a_JF,0,7d2de33f1c0e1235bff983d6b029de949199fc2bb2d69cf5074583daa421524c,2104.1458609104156,False,keypress,EXP9a_testRsp_rv,1042,[],choice-response,At,655e73d1a60ad4b436a1357f,2023-11-22 16:34:02-05:00,speech5,1730,180,DiscriminationTrials_rv
6345b7f49677d36bd07c5a10,EXP9a_JF,0,7d2de33f1c0e1235bff983d6b029de949199fc2bb2d69cf5074583daa421524c,2104.1458609104156,False,keypress,EXP9a_testRsp_rv,709,[],choice-response,At,655e73d1a60ad4b436a1357f,2023-11-22 16:34:02-05:00,speech4,1374,181,DiscriminationTrials_rv
6345b7f49677d36bd07c5a10,EXP9a_JF,0,7d2de33f1c0e1235bff983d6b029de949199fc2bb2d69cf5074583daa421524c,2104.1458609104156,False,keypress,EXP9a_testRsp_rv,294,[],choice-response,At,655e73d1a60ad4b436a1357f,2023-11-22 16:34:02-05:00,speech6,1006,182,DiscriminationTrials_rv
6345b7f49677d36bd07c5a10,EXP9a_JF,0,7d2de33f1c0e1235bff983d6b029de949199fc2bb2d69cf5074583daa421524c,2104.1458609104156,False,keypress,EXP9a_testRsp_rv,275,[],choice-response,Add,655e73d1a60ad4b436a1357f,2023-11-22 16:34:02-05:00,speech8,1029,183,DiscriminationTrials_rv
6345b7f49677d36bd07c5a10,EXP9a_JF,0,7d2de33f1c0e1235bff983d6b029de949199fc2bb2d69cf5074583daa421524c,2104.1458609104156,False,keypress,EXP9a_testRsp_rv,770,[],choice-response,Add,655e73d1a60ad4b436a1357f,2023-11-22 16:34:02-05:00,speech8,1529,184,DiscriminationTrials_rv
6345b7f49677d36bd07c5a10,EXP9a_JF,0,7d2de33f1c0e1235bff983d6b029de949199fc2bb2d69cf5074583daa421524c,2104.1458609104156,False,keypress,EXP9a_testRsp_rv,750,[],choice-response,Add,655e73d1a60ad4b436a1357f,2023-11-22 16:34:02-05:00,speech3,1386,185,DiscriminationTrials_rv
6345b7f49677d36bd07c5a10,EXP9a_JF,0,7d2de33f1c0e1235bff983d6b029de949199fc2bb2d69cf5074583daa421524c,2104.1458609104156,False,keypress,EXP9a_testRsp_rv,837,[],choice-response,Add,655e73d1a60ad4b436a1357f,2023-11-22 16:34:02-05:00,speech6,1542,186,DiscriminationTrials_rv
6345b7f49677d36bd07c5a10,EXP9a_JF,0,7d2de33f1c0e1235bff983d6b029de949199fc2bb2d69cf5074583daa421524c,2104.1458609104156,False,keypress,EXP9a_testRsp_rv,963,[],choice-response,Add,655e73d1a60ad4b436a1357f,2023-11-22 16:34:02-05:00,speech4,1626,187,DiscriminationTrials_rv
6345b7f49677d36bd07c5a10,EXP9a_JF,0,7d2de33f1c0e1235bff983d6b029de949199fc2bb2d69cf5074583daa421524c,2104.1458609104156,False,keypress,EXP9a_testRsp_rv,10551,[],choice-response,Add,655e73d1a60ad4b436a1357f,2023-11-22 16:34:02-05:00,speech2,11212,188,DiscriminationTrials_rv
6345b7f49677d36bd07c5a10,EXP9a_JF,0,7d2de33f1c0e1235bff983d6b029de949199fc2bb2d69cf5074583daa421524c,2104.1458609104156,False,keypress,EXP9a_testRsp_rv,19283,[],choice-response,At,655e73d1a60ad4b436a1357f,2023-11-22 16:34:02-05:00,speech1,19894,189,DiscriminationTrials_rv
6345b7f49677d36bd07c5a10,EXP9a_JF,0,7d2de33f1c0e1235bff983d6b029de949199fc2bb2d69cf5074583daa421524c,2104.1458609104156,False,keypress,EXP9a_testRsp_rv,631,[],choice-response,Add,655e73d1a60ad4b436a1357f,2023-11-22 16:34:02-05:00,speech7,1359,190,DiscriminationTrials_rv
6345b7f49677d36bd07c5a10,EXP9a_JF,0,7d2de33f1c0e1235bff983d6b029de949199fc2bb2d69cf5074583daa421524c,2104.1458609104156,False,keypress,EXP9a_testRsp_rv,704,[],choice-response,Add,655e73d1a60ad4b436a1357f,2023-11-22 16:34:02-05:00,speech5,1389,191,DiscriminationTrials_rv
6345b7f49677d36bd07c5a10,EXP9a_JF,0,7d2de33f1c0e1235bff983d6b029de949199fc2bb2d69cf5074583daa421524c,2104.1458609104156,False,keypress,EXP9a_testRsp_rv,311,[],choice-response,Add,655e73d1a60ad4b436a1357f,2023-11-22 16:34:02-05:00,speech6,1018,192,DiscriminationTrials_rv
6345b7f49677d36bd07c5a10,EXP9a_JF,0,7d2de33f1c0e1235bff983d6b029de949199fc2bb2d69cf5074583daa421524c,2104.1458609104156,False,keypress,EXP9a_testRsp_rv,657,[],choice-response,At,655e73d1a60ad4b436a1357f,2023-11-22 16:34:02-05:00,speech2,1296,193,DiscriminationTrials_rv
6345b7f49677d36bd07c5a10,EXP9a_JF,0,7d2de33f1c0e1235bff983d6b029de949199fc2bb2d69cf5074583daa421524c,2104.1458609104156,False,keypress,EXP9a_testRsp_rv,440,[],choice-response,Add,655e73d1a60ad4b436a1357f,2023-11-22 16:34:02-05:00,speech4,1102,194,DiscriminationTrials_rv
6345b7f49677d36bd07c5a10,EXP9a_JF,0,7d2de33f1c0e1235bff983d6b029de949199fc2bb2d69cf5074583daa421524c,2104.1458609104156,False,keypress,EXP9a_testRsp_rv,243,[],choice-response,Add,655e73d1a60ad4b436a1357f,2023-11-22 16:34:02-05:00,speech5,931,195,DiscriminationTrials_rv
6345b7f49677d36bd07c5a10,EXP9a_JF,0,7d2de33f1c0e1235bff983d6b029de949199fc2bb2d69cf5074583daa421524c,2104.1458609104156,False,keypress,EXP9a_testRsp_rv,187,[],choice-response,Add,655e73d1a60ad4b436a1357f,2023-11-22 16:34:02-05:00,speech3,835,196,DiscriminationTrials_rv
6345b7f49677d36bd07c5a10,EXP9a_JF,0,7d2de33f1c0e1235bff983d6b029de949199fc2bb2d69cf5074583daa421524c,2104.1458609104156,False,keypress,EXP9a_testRsp_rv,601,[],choice-response,At,655e73d1a60ad4b436a1357f,2023-11-22 16:34:02-05:00,speech1,1220,197,DiscriminationTrials_rv
6345b7f49677d36bd07c5a10,EXP9a_JF,0,7d2de33f1c0e1235bff983d6b029de949199fc2bb2d69cf5074583daa421524c,2104.1458609104156,False,keypress,EXP9a_testRsp_rv,1466,[],choice-response,Add,655e73d1a60ad4b436a1357f,2023-11-22 16:34:02-05:00,speech8,2223,198,DiscriminationTrials_rv
6345b7f49677d36bd07c5a10,EXP9a_JF,0,7d2de33f1c0e1235bff983d6b029de949199fc2bb2d69cf5074583daa421524c,2104.1458609104156,False,keypress,EXP9a_testRsp_rv,378,[],choice-response,Add,655e73d1a60ad4b436a1357f,2023-11-22 16:34:02-05:00,speech7,1110,199,DiscriminationTrials_rv
6345b7f49677d36bd07c5a10,EXP9a_JF,0,7d2de33f1c0e1235bff983d6b029de949199fc2bb2d69cf5074583daa421524c,2104.1458609104156,False,keypress,EXP9a_testRsp_rv,129,[],choice-response,Add,655e73d1a60ad4b436a1357f,2023-11-22 16:34:02-05:00,speech6,838,200,DiscriminationTrials_rv
6345b7f49677d36bd07c5a10,EXP9a_JF,0,7d2de33f1c0e1235bff983d6b029de949199fc2bb2d69cf5074583daa421524c,2104.1458609104156,False,keypress,EXP9a_testRsp_rv,264,[],choice-response,At,655e73d1a60ad4b436a1357f,2023-11-22 16:34:02-05:00,speech1,877,201,DiscriminationTrials_rv
6345b7f49677d36bd07c5a10,EXP9a_JF,0,7d2de33f1c0e1235bff983d6b029de949199fc2bb2d69cf5074583daa421524c,2104.1458609104156,False,keypress,EXP9a_testRsp_rv,150,[],choice-response,Add,655e73d1a60ad4b436a1357f,2023-11-22 16:34:02-05:00,speech7,875,202,DiscriminationTrials_rv
6345b7f49677d36bd07c5a10,EXP9a_JF,0,7d2de33f1c0e1235bff983d6b029de949199fc2bb2d69cf5074583daa421524c,2104.1458609104156,False,keypress,EXP9a_testRsp_rv,47,[],choice-response,Add,655e73d1a60ad4b436a1357f,2023-11-22 16:34:02-05:00,speech5,731,203,DiscriminationTrials_rv
6345b7f49677d36bd07c5a10,EXP9a_JF,0,7d2de33f1c0e1235bff983d6b029de949199fc2bb2d69cf5074583daa421524c,2104.1458609104156,False,keypress,EXP9a_testRsp_rv,185,[],choice-response,Add,655e73d1a60ad4b436a1357f,2023-11-22 16:34:02-05:00,speech8,940,204,DiscriminationTrials_rv
6345b7f49677d36bd07c5a10,EXP9a_JF,0,7d2de33f1c0e1235bff983d6b029de949199fc2bb2d69cf5074583daa421524c,2104.1458609104156,False,keypress,EXP9a_testRsp_rv,628,[],choice-response,Add,655e73d1a60ad4b436a1357f,2023-11-22 16:34:02-05:00,speech4,1293,205,DiscriminationTrials_rv
6345b7f49677d36bd07c5a10,EXP9a_JF,0,7d2de33f1c0e1235bff983d6b029de949199fc2bb2d69cf5074583daa421524c,2104.1458609104156,False,keypress,EXP9a_testRsp_rv,495,[],choice-response,Add,655e73d1a60ad4b436a1357f,2023-11-22 16:34:02-05:00,speech2,1140,206,DiscriminationTrials_rv
6345b7f49677d36bd07c5a10,EXP9a_JF,0,7d2de33f1c0e1235bff983d6b029de949199fc2bb2d69cf5074583daa421524c,2104.1458609104156,False,keypress,EXP9a_testRsp_rv,547,[],choice-response,Add,655e73d1a60ad4b436a1357f,2023-11-22 16:34:02-05:00,speech3,1185,207,DiscriminationTrials_rv
6345b7f49677d36bd07c5a10,EXP9a_JF,0,7d2de33f1c0e1235bff983d6b029de949199fc2bb2d69cf5074583daa421524c,2104.1458609104156,False,keypress,EXP9a_testRsp_rv,332,[],choice-response,Add,655e73d1a60ad4b436a1357f,2023-11-22 16:34:02-05:00,speech7,1061,208,DiscriminationTrials_rv
6345b7f49677d36bd07c5a10,EXP9a_JF,0,7d2de33f1c0e1235bff983d6b029de949199fc2bb2d69cf5074583daa421524c,2104.1458609104156,False,keypress,EXP9a_testRsp_rv,313,[],choice-response,Add,655e73d1a60ad4b436a1357f,2023-11-22 16:34:02-05:00,speech5,1001,209,DiscriminationTrials_rv
6345b7f49677d36bd07c5a10,EXP9a_JF,0,7d2de33f1c0e1235bff983d6b029de949199fc2bb2d69cf5074583daa421524c,2104.1458609104156,False,keypress,EXP9a_testRsp_rv,774,[],choice-response,Add,655e73d1a60ad4b436a1357f,2023-11-22 16:34:02-05:00,speech8,1530,210,DiscriminationTrials_rv
6345b7f49677d36bd07c5a10,EXP9a_JF,0,7d2de33f1c0e1235bff983d6b029de949199fc2bb2d69cf5074583daa421524c,2104.1458609104156,False,keypress,EXP9a_testRsp_rv,431,[],choice-response,At,655e73d1a60ad4b436a1357f,2023-11-22 16:34:02-05:00,speech1,1049,211,DiscriminationTrials_rv
6345b7f49677d36bd07c5a10,EXP9a_JF,0,7d2de33f1c0e1235bff983d6b029de949199fc2bb2d69cf5074583daa421524c,2104.1458609104156,False,keypress,EXP9a_testRsp_rv,476,[],choice-response,At,655e73d1a60ad4b436a1357f,2023-11-22 16:34:02-05:00,speech3,1122,212,DiscriminationTrials_rv
6345b7f49677d36bd07c5a10,EXP9a_JF,0,7d2de33f1c0e1235bff983d6b029de949199fc2bb2d69cf5074583daa421524c,2104.1458609104156,False,keypress,EXP9a_testRsp_rv,316,[],choice-response,At,655e73d1a60ad4b436a1357f,2023-11-22 16:34:02-05:00,speech4,979,213,DiscriminationTrials_rv
6345b7f49677d36bd07c5a10,EXP9a_JF,0,7d2de33f1c0e1235bff983d6b029de949199fc2bb2d69cf5074583daa421524c,2104.1458609104156,False,keypress,EXP9a_testRsp_rv,158,[],choice-response,At,655e73d1a60ad4b436a1357f,2023-11-22 16:34:02-05:00,speech2,798,214,DiscriminationTrials_rv
6345b7f49677d36bd07c5a10,EXP9a_JF,0,7d2de33f1c0e1235bff983d6b029de949199fc2bb2d69cf5074583daa421524c,2104.1458609104156,False,keypress,EXP9a_testRsp_rv,842,[],choice-response,At,655e73d1a60ad4b436a1357f,2023-11-22 16:34:02-05:00,speech6,1558,215,DiscriminationTrials_rv
6345b7f49677d36bd07c5a10,EXP9a_JF,0,7d2de33f1c0e1235bff983d6b029de949199fc2bb2d69cf5074583daa421524c,2104.1458609104156,False,keypress,EXP9a_testRsp_rv,205,[],choice-response,At,655e73d1a60ad4b436a1357f,2023-11-22 16:34:02-05:00,speech6,914,216,DiscriminationTrials_rv
6345b7f49677d36bd07c5a10,EXP9a_JF,0,7d2de33f1c0e1235bff983d6b029de949199fc2bb2d69cf5074583daa421524c,2104.1458609104156,False,keypress,EXP9a_testRsp_rv,310,[],choice-response,At,655e73d1a60ad4b436a1357f,2023-11-22 16:34:02-05:00,speech2,953,217,DiscriminationTrials_rv
6345b7f49677d36bd07c5a10,EXP9a_JF,0,7d2de33f1c0e1235bff983d6b029de949199fc2bb2d69cf5074583daa421524c,2104.1458609104156,False,keypress,EXP9a_testRsp_rv,1183,[],choice-response,At,655e73d1a60ad4b436a1357f,2023-11-22 16:34:02-05:00,speech1,1796,218,DiscriminationTrials_rv
6345b7f49677d36bd07c5a10,EXP9a_JF,0,7d2de33f1c0e1235bff983d6b029de949199fc2bb2d69cf5074583daa421524c,2104.1458609104156,False,keypress,EXP9a_testRsp_rv,188,[],choice-response,At,655e73d1a60ad4b436a1357f,2023-11-22 16:34:02-05:00,speech3,828,219,DiscriminationTrials_rv
6345b7f49677d36bd07c5a10,EXP9a_JF,0,7d2de33f1c0e1235bff983d6b029de949199fc2bb2d69cf5074583daa421524c,2104.1458609104156,False,keypress,EXP9a_testRsp_rv,246,[],choice-response,At,655e73d1a60ad4b436a1357f,2023-11-22 16:34:02-05:00,speech4,912,220,DiscriminationTrials_rv
6345b7f49677d36bd07c5a10,EXP9a_JF,0,7d2de33f1c0e1235bff983d6b029de949199fc2bb2d69cf5074583daa421524c,2104.1458609104156,False,keypress,EXP9a_testRsp_rv,284,[],choice-response,Add,655e73d1a60ad4b436a1357f,2023-11-22 16:34:02-05:00,speech7,1022,221,DiscriminationTrials_rv
6345b7f49677d36bd07c5a10,EXP9a_JF,0,7d2de33f1c0e1235bff983d6b029de949199fc2bb2d69cf5074583daa421524c,2104.1458609104156,False,keypress,EXP9a_testRsp_rv,305,[],choice-response,Add,655e73d1a60ad4b436a1357f,2023-11-22 16:34:02-05:00,speech8,1059,222,DiscriminationTrials_rv
6345b7f49677d36bd07c5a10,EXP9a_JF,0,7d2de33f1c0e1235bff983d6b029de949199fc2bb2d69cf5074583daa421524c,2104.1458609104156,False,keypress,EXP9a_testRsp_rv,592,[],choice-response,Add,655e73d1a60ad4b436a1357f,2023-11-22 16:34:02-05:00,speech5,1275,223,DiscriminationTrials_rv
6345b7f49677d36bd07c5a10,EXP9a_JF,0,7d2de33f1c0e1235bff983d6b029de949199fc2bb2d69cf5074583daa421524c,2104.1458609104156,False,keypress,EXP9a_testRsp_rv,753,[],choice-response,At,655e73d1a60ad4b436a1357f,2023-11-22 16:34:02-05:00,speech2,1397,224,DiscriminationTrials_rv
6345b7f49677d36bd07c5a10,EXP9a_JF,0,7d2de33f1c0e1235bff983d6b029de949199fc2bb2d69cf5074583daa421524c,2104.1458609104156,False,keypress,EXP9a_testRsp_rv,376,[],choice-response,Add,655e73d1a60ad4b436a1357f,2023-11-22 16:34:02-05:00,speech8,1129,225,DiscriminationTrials_rv
6345b7f49677d36bd07c5a10,EXP9a_JF,0,7d2de33f1c0e1235bff983d6b029de949199fc2bb2d69cf5074583daa421524c,2104.1458609104156,False,keypress,EXP9a_testRsp_rv,196,[],choice-response,Add,655e73d1a60ad4b436a1357f,2023-11-22 16:34:02-05:00,speech7,947,226,DiscriminationTrials_rv
6345b7f49677d36bd07c5a10,EXP9a_JF,0,7d2de33f1c0e1235bff983d6b029de949199fc2bb2d69cf5074583daa421524c,2104.1458609104156,False,keypress,EXP9a_testRsp_rv,288,[],choice-response,Add,655e73d1a60ad4b436a1357f,2023-11-22 16:34:02-05:00,speech5,978,227,DiscriminationTrials_rv
6345b7f49677d36bd07c5a10,EXP9a_JF,0,7d2de33f1c0e1235bff983d6b029de949199fc2bb2d69cf5074583daa421524c,2104.1458609104156,False,keypress,EXP9a_testRsp_rv,162,[],choice-response,Add,655e73d1a60ad4b436a1357f,2023-11-22 16:34:02-05:00,speech6,870,228,DiscriminationTrials_rv
6345b7f49677d36bd07c5a10,EXP9a_JF,0,7d2de33f1c0e1235bff983d6b029de949199fc2bb2d69cf5074583daa421524c,2104.1458609104156,False,keypress,EXP9a_testRsp_rv,371,[],choice-response,At,655e73d1a60ad4b436a1357f,2023-11-22 16:34:02-05:00,speech1,992,229,DiscriminationTrials_rv
6345b7f49677d36bd07c5a10,EXP9a_JF,0,7d2de33f1c0e1235bff983d6b029de949199fc2bb2d69cf5074583daa421524c,2104.1458609104156,False,keypress,EXP9a_testRsp_rv,307,[],choice-response,At,655e73d1a60ad4b436a1357f,2023-11-22 16:34:02-05:00,speech3,946,230,DiscriminationTrials_rv
6345b7f49677d36bd07c5a10,EXP9a_JF,0,7d2de33f1c0e1235bff983d6b029de949199fc2bb2d69cf5074583daa421524c,2104.1458609104156,False,keypress,EXP9a_testRsp_rv,211,[],choice-response,At,655e73d1a60ad4b436a1357f,2023-11-22 16:34:02-05:00,speech4,874,231,DiscriminationTrials_rv
6345b7f49677d36bd07c5a10,EXP9a_JF,0,7d2de33f1c0e1235bff983d6b029de949199fc2bb2d69cf5074583daa421524c,2104.1458609104156,False,keypress,EXP9a_testRsp_rv,110,[],choice-response,At,655e73d1a60ad4b436a1357f,2023-11-22 16:34:02-05:00,speech6,819,232,DiscriminationTrials_rv
6345b7f49677d36bd07c5a10,EXP9a_JF,0,7d2de33f1c0e1235bff983d6b029de949199fc2bb2d69cf5074583daa421524c,2104.1458609104156,False,keypress,EXP9a_testRsp_rv,254,[],choice-response,At,655e73d1a60ad4b436a1357f,2023-11-22 16:34:02-05:00,speech3,897,233,DiscriminationTrials_rv
6345b7f49677d36bd07c5a10,EXP9a_JF,0,7d2de33f1c0e1235bff983d6b029de949199fc2bb2d69cf5074583daa421524c,2104.1458609104156,False,keypress,EXP9a_testRsp_rv,532,[],choice-response,At,655e73d1a60ad4b436a1357f,2023-11-22 16:34:02-05:00,speech5,1221,234,DiscriminationTrials_rv
6345b7f49677d36bd07c5a10,EXP9a_JF,0,7d2de33f1c0e1235bff983d6b029de949199fc2bb2d69cf5074583daa421524c,2104.1458609104156,False,keypress,EXP9a_testRsp_rv,1067,[],choice-response,Add,655e73d1a60ad4b436a1357f,2023-11-22 16:34:02-05:00,speech7,1804,235,DiscriminationTrials_rv
6345b7f49677d36bd07c5a10,EXP9a_JF,0,7d2de33f1c0e1235bff983d6b029de949199fc2bb2d69cf5074583daa421524c,2104.1458609104156,False,keypress,EXP9a_testRsp_rv,337,[],choice-response,Add,655e73d1a60ad4b436a1357f,2023-11-22 16:34:02-05:00,speech1,955,236,DiscriminationTrials_rv
6345b7f49677d36bd07c5a10,EXP9a_JF,0,7d2de33f1c0e1235bff983d6b029de949199fc2bb2d69cf5074583daa421524c,2104.1458609104156,False,keypress,EXP9a_testRsp_rv,606,[],choice-response,At,655e73d1a60ad4b436a1357f,2023-11-22 16:34:02-05:00,speech2,1245,237,DiscriminationTrials_rv
6345b7f49677d36bd07c5a10,EXP9a_JF,0,7d2de33f1c0e1235bff983d6b029de949199fc2bb2d69cf5074583daa421524c,2104.1458609104156,False,keypress,EXP9a_testRsp_rv,388,[],choice-response,At,655e73d1a60ad4b436a1357f,2023-11-22 16:34:02-05:00,speech4,1049,238,DiscriminationTrials_rv
6345b7f49677d36bd07c5a10,EXP9a_JF,0,7d2de33f1c0e1235bff983d6b029de949199fc2bb2d69cf5074583daa421524c,2104.1458609104156,False,keypress,EXP9a_testRsp_rv,514,[],choice-response,Add,655e73d1a60ad4b436a1357f,2023-11-22 16:34:02-05:00,speech8,1278,239,DiscriminationTrials_rv
6345b7f49677d36bd07c5a10,EXP9a_JF,0,7d2de33f1c0e1235bff983d6b029de949199fc2bb2d69cf5074583daa421524c,2104.1458609104156,False,keypress,EXP9a_testRsp_rv,295,[],choice-response,Add,655e73d1a60ad4b436a1357f,2023-11-22 16:34:02-05:00,speech7,1033,240,DiscriminationTrials_rv
6345b7f49677d36bd07c5a10,EXP9a_JF,0,7d2de33f1c0e1235bff983d6b029de949199fc2bb2d69cf5074583daa421524c,2104.1458609104156,False,keypress,EXP9a_testRsp_rv,232,[],choice-response,Add,655e73d1a60ad4b436a1357f,2023-11-22 16:34:02-05:00,speech2,873,241,DiscriminationTrials_rv
6345b7f49677d36bd07c5a10,EXP9a_JF,0,7d2de33f1c0e1235bff983d6b029de949199fc2bb2d69cf5074583daa421524c,2104.1458609104156,False,keypress,EXP9a_testRsp_rv,366,[],choice-response,At,655e73d1a60ad4b436a1357f,2023-11-22 16:34:02-05:00,speech3,1008,242,DiscriminationTrials_rv
6345b7f49677d36bd07c5a10,EXP9a_JF,0,7d2de33f1c0e1235bff983d6b029de949199fc2bb2d69cf5074583daa421524c,2104.1458609104156,False,keypress,EXP9a_testRsp_rv,307,[],choice-response,At,655e73d1a60ad4b436a1357f,2023-11-22 16:34:02-05:00,speech1,926,243,DiscriminationTrials_rv
6345b7f49677d36bd07c5a10,EXP9a_JF,0,7d2de33f1c0e1235bff983d6b029de949199fc2bb2d69cf5074583daa421524c,2104.1458609104156,False,keypress,EXP9a_testRsp_rv,398,[],choice-response,At,655e73d1a60ad4b436a1357f,2023-11-22 16:34:02-05:00,speech5,1080,244,DiscriminationTrials_rv
6345b7f49677d36bd07c5a10,EXP9a_JF,0,7d2de33f1c0e1235bff983d6b029de949199fc2bb2d69cf5074583daa421524c,2104.1458609104156,False,keypress,EXP9a_testRsp_rv,516,[],choice-response,Add,655e73d1a60ad4b436a1357f,2023-11-22 16:34:02-05:00,speech8,1275,245,DiscriminationTrials_rv
6345b7f49677d36bd07c5a10,EXP9a_JF,0,7d2de33f1c0e1235bff983d6b029de949199fc2bb2d69cf5074583daa421524c,2104.1458609104156,False,keypress,EXP9a_testRsp_rv,371,[],choice-response,Add,655e73d1a60ad4b436a1357f,2023-11-22 16:34:02-05:00,speech6,1077,246,DiscriminationTrials_rv
6345b7f49677d36bd07c5a10,EXP9a_JF,0,7d2de33f1c0e1235bff983d6b029de949199fc2bb2d69cf5074583daa421524c,2104.1458609104156,False,keypress,EXP9a_testRsp_rv,302,[],choice-response,Add,655e73d1a60ad4b436a1357f,2023-11-22 16:34:02-05:00,speech4,964,247,DiscriminationTrials_rv
6345b7f49677d36bd07c5a10,EXP9a_JF,0,7d2de33f1c0e1235bff983d6b029de949199fc2bb2d69cf5074583daa421524c,2104.1458609104156,True,keypress,EXP9a_ExpRsp_at_rv,1582,['At'],choice-response,At,655e73d1a60ad4b436a1357f,2023-11-22 16:34:02-05:00,ontime_speech1,7665,248,EXP9a_main_example_rv
6345b7f49677d36bd07c5a10,EXP9a_JF,0,7d2de33f1c0e1235bff983d6b029de949199fc2bb2d69cf5074583daa421524c,2104.1458609104156,True,keypress,EXP9a_ExpRsp_add_rv,913,['Add'],choice-response,Add,655e73d1a60ad4b436a1357f,2023-11-22 16:34:02-05:00,ontime_speech8,7090,249,EXP9a_main_example_rv
6345b7f49677d36bd07c5a10,EXP9a_JF,0,7d2de33f1c0e1235bff983d6b029de949199fc2bb2d69cf5074583daa421524c,2104.1458609104156,True,keypress,EXP9a_ExpRsp_add_rv,645,['Add'],choice-response,Add,655e73d1a60ad4b436a1357f,2023-11-22 16:34:02-05:00,ontime_speech8,6141,250,EXP9a_main_example_rv
6345b7f49677d36bd07c5a10,EXP9a_JF,0,7d2de33f1c0e1235bff983d6b029de949199fc2bb2d69cf5074583daa421524c,2104.1458609104156,True,keypress,EXP9a_ExpRsp_at_rv,384,['At'],choice-response,At,655e73d1a60ad4b436a1357f,2023-11-22 16:34:02-05:00,ontime_speech1,5722,251,EXP9a_main_example_rv
6345b7f49677d36bd07c5a10,EXP9a_JF,0,7d2de33f1c0e1235bff983d6b029de949199fc2bb2d69cf5074583daa421524c,2104.1458609104156,False,keypress,EXP9a_testRsp_rv,235,[],choice-response,Add,655e73d1a60ad4b436a1357f,2023-11-22 16:34:02-05:00,ontime_speech4,3569,252,EXP9a_maintaskTrials_rv
6345b7f49677d36bd07c5a10,EXP9a_JF,0,7d2de33f1c0e1235bff983d6b029de949199fc2bb2d69cf5074583daa421524c,2104.1458609104156,False,keypress,EXP9a_testRsp_rv,269,[],choice-response,Add,655e73d1a60ad4b436a1357f,2023-11-22 16:34:02-05:00,ontime_speech1,2974,253,EXP9a_maintaskTrials_rv
6345b7f49677d36bd07c5a10,EXP9a_JF,0,7d2de33f1c0e1235bff983d6b029de949199fc2bb2d69cf5074583daa421524c,2104.1458609104156,False,keypress,EXP9a_testRsp_rv,506,[],choice-response,Add,655e73d1a60ad4b436a1357f,2023-11-22 16:34:02-05:00,early_speech3,3856,254,EXP9a_maintaskTrials_rv
6345b7f49677d36bd07c5a10,EXP9a_JF,0,7d2de33f1c0e1235bff983d6b029de949199fc2bb2d69cf5074583daa421524c,2104.1458609104156,False,keypress,EXP9a_testRsp_rv,1071,[],choice-response,Add,655e73d1a60ad4b436a1357f,2023-11-22 16:34:02-05:00,early_speech2,4332,255,EXP9a_maintaskTrials_rv
6345b7f49677d36bd07c5a10,EXP9a_JF,0,7d2de33f1c0e1235bff983d6b029de949199fc2bb2d69cf5074583daa421524c,2104.1458609104156,False,keypress,EXP9a_testRsp_rv,505,[],choice-response,Add,655e73d1a60ad4b436a1357f,2023-11-22 16:34:02-05:00,ontime_speech5,3612,256,EXP9a_maintaskTrials_rv
6345b7f49677d36bd07c5a10,EXP9a_JF,0,7d2de33f1c0e1235bff983d6b029de949199fc2bb2d69cf5074583daa421524c,2104.1458609104156,False,keypress,EXP9a_testRsp_rv,309,[],choice-response,Add,655e73d1a60ad4b436a1357f,2023-11-22 16:34:02-05:00,ontime_speech8,3157,257,EXP9a_maintaskTrials_rv
6345b7f49677d36bd07c5a10,EXP9a_JF,0,7d2de33f1c0e1235bff983d6b029de949199fc2bb2d69cf5074583daa421524c,2104.1458609104156,False,keypress,EXP9a_testRsp_rv,665,[],choice-response,Add,655e73d1a60ad4b436a1357f,2023-11-22 16:34:02-05:00,late_speech8,4314,258,EXP9a_maintaskTrials_rv
6345b7f49677d36bd07c5a10,EXP9a_JF,0,7d2de33f1c0e1235bff983d6b029de949199fc2bb2d69cf5074583daa421524c,2104.1458609104156,False,keypress,EXP9a_testRsp_rv,286,[],choice-response,At,655e73d1a60ad4b436a1357f,2023-11-22 16:34:02-05:00,early_speech1,3303,259,EXP9a_maintaskTrials_rv
6345b7f49677d36bd07c5a10,EXP9a_JF,0,7d2de33f1c0e1235bff983d6b029de949199fc2bb2d69cf5074583daa421524c,2104.1458609104156,False,keypress,EXP9a_testRsp_rv,805,[],choice-response,Add,655e73d1a60ad4b436a1357f,2023-11-22 16:34:02-05:00,late_speech7,4133,260,EXP9a_maintaskTrials_rv
6345b7f49677d36bd07c5a10,EXP9a_JF,0,7d2de33f1c0e1235bff983d6b029de949199fc2bb2d69cf5074583daa421524c,2104.1458609104156,False,keypress,EXP9a_testRsp_rv,1108,[],choice-response,Add,655e73d1a60ad4b436a1357f,2023-11-22 16:34:02-05:00,early_speech4,4192,261,EXP9a_maintaskTrials_rv
6345b7f49677d36bd07c5a10,EXP9a_JF,0,7d2de33f1c0e1235bff983d6b029de949199fc2bb2d69cf5074583daa421524c,2104.1458609104156,False,keypress,EXP9a_testRsp_rv,459,[],choice-response,At,655e73d1a60ad4b436a1357f,2023-11-22 16:34:02-05:00,late_speech1,3561,262,EXP9a_maintaskTrials_rv
6345b7f49677d36bd07c5a10,EXP9a_JF,0,7d2de33f1c0e1235bff983d6b029de949199fc2bb2d69cf5074583daa421524c,2104.1458609104156,True,keypress,cat_catchRsp,2334,['Cat meowing'],choice-response,Cat meowing,655e73d1a60ad4b436a1357f,2023-11-22 16:34:02-05:00,cat_meowing,5138,263,Catch_trials
6345b7f49677d36bd07c5a10,EXP9a_JF,0,7d2de33f1c0e1235bff983d6b029de949199fc2bb2d69cf5074583daa421524c,2104.1458609104156,False,keypress,EXP9a_testRsp_rv,1458,[],choice-response,Add,655e73d1a60ad4b436a1357f,2023-11-22 16:34:02-05:00,late_speech3,4648,264,EXP9a_maintaskTrials_rv
6345b7f49677d36bd07c5a10,EXP9a_JF,0,7d2de33f1c0e1235bff983d6b029de949199fc2bb2d69cf5074583daa421524c,2104.1458609104156,False,keypress,EXP9a_testRsp_rv,465,[],choice-response,Add,655e73d1a60ad4b436a1357f,2023-11-22 16:34:02-05:00,early_speech8,3577,265,EXP9a_maintaskTrials_rv
6345b7f49677d36bd07c5a10,EXP9a_JF,0,7d2de33f1c0e1235bff983d6b029de949199fc2bb2d69cf5074583daa421524c,2104.1458609104156,False,keypress,EXP9a_testRsp_rv,535,[],choice-response,Add,655e73d1a60ad4b436a1357f,2023-11-22 16:34:02-05:00,late_speech6,4212,266,EXP9a_maintaskTrials_rv
6345b7f49677d36bd07c5a10,EXP9a_JF,0,7d2de33f1c0e1235bff983d6b029de949199fc2bb2d69cf5074583daa421524c,2104.1458609104156,False,keypress,EXP9a_testRsp_rv,305,[],choice-response,Add,655e73d1a60ad4b436a1357f,2023-11-22 16:34:02-05:00,early_speech7,3360,267,EXP9a_maintaskTrials_rv
6345b7f49677d36bd07c5a10,EXP9a_JF,0,7d2de33f1c0e1235bff983d6b029de949199fc2bb2d69cf5074583daa421524c,2104.1458609104156,False,keypress,EXP9a_testRsp_rv,428,[],choice-response,At,655e73d1a60ad4b436a1357f,2023-11-22 16:34:02-05:00,ontime_speech2,4006,268,EXP9a_maintaskTrials_rv
6345b7f49677d36bd07c5a10,EXP9a_JF,0,7d2de33f1c0e1235bff983d6b029de949199fc2bb2d69cf5074583daa421524c,2104.1458609104156,False,keypress,EXP9a_testRsp_rv,579,[],choice-response,At,655e73d1a60ad4b436a1357f,2023-11-22 16:34:02-05:00,late_speech5,3870,269,EXP9a_maintaskTrials_rv
6345b7f49677d36bd07c5a10,EXP9a_JF,0,7d2de33f1c0e1235bff983d6b029de949199fc2bb2d69cf5074583daa421524c,2104.1458609104156,False,keypress,EXP9a_testRsp_rv,218,[],choice-response,Add,655e73d1a60ad4b436a1357f,2023-11-22 16:34:02-05:00,early_speech6,4476,270,EXP9a_maintaskTrials_rv
6345b7f49677d36bd07c5a10,EXP9a_JF,0,7d2de33f1c0e1235bff983d6b029de949199fc2bb2d69cf5074583daa421524c,2104.1458609104156,False,keypress,EXP9a_testRsp_rv,506,[],choice-response,Add,655e73d1a60ad4b436a1357f,2023-11-22 16:34:02-05:00,ontime_speech6,3927,271,EXP9a_maintaskTrials_rv
6345b7f49677d36bd07c5a10,EXP9a_JF,0,7d2de33f1c0e1235bff983d6b029de949199fc2bb2d69cf5074583daa421524c,2104.1458609104156,False,keypress,EXP9a_testRsp_rv,388,[],choice-response,At,655e73d1a60ad4b436a1357f,2023-11-22 16:34:02-05:00,late_speech2,3481,272,EXP9a_maintaskTrials_rv
6345b7f49677d36bd07c5a10,EXP9a_JF,0,7d2de33f1c0e1235bff983d6b029de949199fc2bb2d69cf5074583daa421524c,2104.1458609104156,False,keypress,EXP9a_testRsp_rv,459,[],choice-response,At,655e73d1a60ad4b436a1357f,2023-11-22 16:34:02-05:00,early_speech5,3610,273,EXP9a_maintaskTrials_rv
6345b7f49677d36bd07c5a10,EXP9a_JF,0,7d2de33f1c0e1235bff983d6b029de949199fc2bb2d69cf5074583daa421524c,2104.1458609104156,False,keypress,EXP9a_testRsp_rv,786,[],choice-response,At,655e73d1a60ad4b436a1357f,2023-11-22 16:34:02-05:00,ontime_speech3,3860,274,EXP9a_maintaskTrials_rv
6345b7f49677d36bd07c5a10,EXP9a_JF,0,7d2de33f1c0e1235bff983d6b029de949199fc2bb2d69cf5074583daa421524c,2104.1458609104156,True,keypress,bird_catchRsp,2235,['Bird singing'],choice-response,Bird singing,655e73d1a60ad4b436a1357f,2023-11-22 16:34:02-05:00,songbird,4984,275,Catch_trials
6345b7f49677d36bd07c5a10,EXP9a_JF,0,7d2de33f1c0e1235bff983d6b029de949199fc2bb2d69cf5074583daa421524c,2104.1458609104156,False,keypress,EXP9a_testRsp_rv,735,[],choice-response,Add,655e73d1a60ad4b436a1357f,2023-11-22 16:34:02-05:00,late_speech4,3936,276,EXP9a_maintaskTrials_rv
6345b7f49677d36bd07c5a10,EXP9a_JF,0,7d2de33f1c0e1235bff983d6b029de949199fc2bb2d69cf5074583daa421524c,2104.1458609104156,False,keypress,EXP9a_testRsp_rv,356,[],choice-response,Add,655e73d1a60ad4b436a1357f,2023-11-22 16:34:02-05:00,ontime_speech7,3892,277,EXP9a_maintaskTrials_rv
6345b7f49677d36bd07c5a10,EXP9a_JF,0,7d2de33f1c0e1235bff983d6b029de949199fc2bb2d69cf5074583daa421524c,2104.1458609104156,False,keypress,EXP9a_testRsp_rv,291,[],choice-response,Add,655e73d1a60ad4b436a1357f,2023-11-22 16:34:02-05:00,ontime_speech7,3111,278,EXP9a_maintaskTrials_rv
6345b7f49677d36bd07c5a10,EXP9a_JF,0,7d2de33f1c0e1235bff983d6b029de949199fc2bb2d69cf5074583daa421524c,2104.1458609104156,False,keypress,EXP9a_testRsp_rv,219,[],choice-response,Add,655e73d1a60ad4b436a1357f,2023-11-22 16:34:02-05:00,early_speech7,2953,279,EXP9a_maintaskTrials_rv
6345b7f49677d36bd07c5a10,EXP9a_JF,0,7d2de33f1c0e1235bff983d6b029de949199fc2bb2d69cf5074583daa421524c,2104.1458609104156,False,keypress,EXP9a_testRsp_rv,496,[],choice-response,At,655e73d1a60ad4b436a1357f,2023-11-22 16:34:02-05:00,ontime_speech5,3294,280,EXP9a_maintaskTrials_rv
6345b7f49677d36bd07c5a10,EXP9a_JF,0,7d2de33f1c0e1235bff983d6b029de949199fc2bb2d69cf5074583daa421524c,2104.1458609104156,False,keypress,EXP9a_testRsp_rv,348,[],choice-response,At,655e73d1a60ad4b436a1357f,2023-11-22 16:34:02-05:00,ontime_speech3,3100,281,EXP9a_maintaskTrials_rv
6345b7f49677d36bd07c5a10,EXP9a_JF,0,7d2de33f1c0e1235bff983d6b029de949199fc2bb2d69cf5074583daa421524c,2104.1458609104156,False,keypress,EXP9a_testRsp_rv,466,[],choice-response,At,655e73d1a60ad4b436a1357f,2023-11-22 16:34:02-05:00,late_speech5,3337,282,EXP9a_maintaskTrials_rv
6345b7f49677d36bd07c5a10,EXP9a_JF,0,7d2de33f1c0e1235bff983d6b029de949199fc2bb2d69cf5074583daa421524c,2104.1458609104156,False,keypress,EXP9a_testRsp_rv,432,[],choice-response,At,655e73d1a60ad4b436a1357f,2023-11-22 16:34:02-05:00,early_speech1,3048,283,EXP9a_maintaskTrials_rv
6345b7f49677d36bd07c5a10,EXP9a_JF,0,7d2de33f1c0e1235bff983d6b029de949199fc2bb2d69cf5074583daa421524c,2104.1458609104156,False,keypress,EXP9a_testRsp_rv,286,[],choice-response,Add,655e73d1a60ad4b436a1357f,2023-11-22 16:34:02-05:00,ontime_speech6,3093,284,EXP9a_maintaskTrials_rv
6345b7f49677d36bd07c5a10,EXP9a_JF,0,7d2de33f1c0e1235bff983d6b029de949199fc2bb2d69cf5074583daa421524c,2104.1458609104156,False,keypress,EXP9a_testRsp_rv,922,[],choice-response,Add,655e73d1a60ad4b436a1357f,2023-11-22 16:34:02-05:00,early_speech8,3674,285,EXP9a_maintaskTrials_rv
6345b7f49677d36bd07c5a10,EXP9a_JF,0,7d2de33f1c0e1235bff983d6b029de949199fc2bb2d69cf5074583daa421524c,2104.1458609104156,False,keypress,EXP9a_testRsp_rv,591,[],choice-response,At,655e73d1a60ad4b436a1357f,2023-11-22 16:34:02-05:00,ontime_speech2,3325,286,EXP9a_maintaskTrials_rv
6345b7f49677d36bd07c5a10,EXP9a_JF,0,7d2de33f1c0e1235bff983d6b029de949199fc2bb2d69cf5074583daa421524c,2104.1458609104156,True,keypress,cat_catchRsp,1306,['Cat meowing'],choice-response,Cat meowing,655e73d1a60ad4b436a1357f,2023-11-22 16:34:02-05:00,cat_meowing,3713,287,Catch_trials
6345b7f49677d36bd07c5a10,EXP9a_JF,0,7d2de33f1c0e1235bff983d6b029de949199fc2bb2d69cf5074583daa421524c,2104.1458609104156,False,keypress,EXP9a_testRsp_rv,464,[],choice-response,At,655e73d1a60ad4b436a1357f,2023-11-22 16:34:02-05:00,late_speech1,3262,288,EXP9a_maintaskTrials_rv
6345b7f49677d36bd07c5a10,EXP9a_JF,0,7d2de33f1c0e1235bff983d6b029de949199fc2bb2d69cf5074583daa421524c,2104.1458609104156,False,keypress,EXP9a_testRsp_rv,568,[],choice-response,At,655e73d1a60ad4b436a1357f,2023-11-22 16:34:02-05:00,ontime_speech1,3279,289,EXP9a_maintaskTrials_rv
6345b7f49677d36bd07c5a10,EXP9a_JF,0,7d2de33f1c0e1235bff983d6b029de949199fc2bb2d69cf5074583daa421524c,2104.1458609104156,False,keypress,EXP9a_testRsp_rv,277,[],choice-response,Add,655e73d1a60ad4b436a1357f,2023-11-22 16:34:02-05:00,ontime_speech8,3127,290,EXP9a_maintaskTrials_rv
6345b7f49677d36bd07c5a10,EXP9a_JF,0,7d2de33f1c0e1235bff983d6b029de949199fc2bb2d69cf5074583daa421524c,2104.1458609104156,False,keypress,EXP9a_testRsp_rv,822,[],choice-response,At,655e73d1a60ad4b436a1357f,2023-11-22 16:34:02-05:00,early_speech2,3464,291,EXP9a_maintaskTrials_rv
6345b7f49677d36bd07c5a10,EXP9a_JF,0,7d2de33f1c0e1235bff983d6b029de949199fc2bb2d69cf5074583daa421524c,2104.1458609104156,False,keypress,EXP9a_testRsp_rv,539,[],choice-response,Add,655e73d1a60ad4b436a1357f,2023-11-22 16:34:02-05:00,late_speech8,3477,292,EXP9a_maintaskTrials_rv
6345b7f49677d36bd07c5a10,EXP9a_JF,0,7d2de33f1c0e1235bff983d6b029de949199fc2bb2d69cf5074583daa421524c,2104.1458609104156,False,keypress,EXP9a_testRsp_rv,237,[],choice-response,At,655e73d1a60ad4b436a1357f,2023-11-22 16:34:02-05:00,late_speech4,3103,293,EXP9a_maintaskTrials_rv
6345b7f49677d36bd07c5a10,EXP9a_JF,0,7d2de33f1c0e1235bff983d6b029de949199fc2bb2d69cf5074583daa421524c,2104.1458609104156,False,keypress,EXP9a_testRsp_rv,375,[],choice-response,Add,655e73d1a60ad4b436a1357f,2023-11-22 16:34:02-05:00,early_speech5,3078,294,EXP9a_maintaskTrials_rv
6345b7f49677d36bd07c5a10,EXP9a_JF,0,7d2de33f1c0e1235bff983d6b029de949199fc2bb2d69cf5074583daa421524c,2104.1458609104156,False,keypress,EXP9a_testRsp_rv,513,[],choice-response,Add,655e73d1a60ad4b436a1357f,2023-11-22 16:34:02-05:00,early_speech6,3251,295,EXP9a_maintaskTrials_rv
6345b7f49677d36bd07c5a10,EXP9a_JF,0,7d2de33f1c0e1235bff983d6b029de949199fc2bb2d69cf5074583daa421524c,2104.1458609104156,False,keypress,EXP9a_testRsp_rv,530,[],choice-response,At,655e73d1a60ad4b436a1357f,2023-11-22 16:34:02-05:00,early_speech3,3196,296,EXP9a_maintaskTrials_rv
6345b7f49677d36bd07c5a10,EXP9a_JF,0,7d2de33f1c0e1235bff983d6b029de949199fc2bb2d69cf5074583daa421524c,2104.1458609104156,False,keypress,EXP9a_testRsp_rv,447,[],choice-response,At,655e73d1a60ad4b436a1357f,2023-11-22 16:34:02-05:00,early_speech4,3133,297,EXP9a_maintaskTrials_rv
6345b7f49677d36bd07c5a10,EXP9a_JF,0,7d2de33f1c0e1235bff983d6b029de949199fc2bb2d69cf5074583daa421524c,2104.1458609104156,False,keypress,EXP9a_testRsp_rv,385,[],choice-response,At,655e73d1a60ad4b436a1357f,2023-11-22 16:34:02-05:00,ontime_speech4,3160,298,EXP9a_maintaskTrials_rv
6345b7f49677d36bd07c5a10,EXP9a_JF,0,7d2de33f1c0e1235bff983d6b029de949199fc2bb2d69cf5074583daa421524c,2104.1458609104156,True,keypress,bird_catchRsp,1601,['Bird singing'],choice-response,Bird singing,655e73d1a60ad4b436a1357f,2023-11-22 16:34:02-05:00,songbird,4010,299,Catch_trials
6345b7f49677d36bd07c5a10,EXP9a_JF,0,7d2de33f1c0e1235bff983d6b029de949199fc2bb2d69cf5074583daa421524c,2104.1458609104156,False,keypress,EXP9a_testRsp_rv,888,[],choice-response,Add,655e73d1a60ad4b436a1357f,2023-11-22 16:34:02-05:00,late_speech6,3784,300,EXP9a_maintaskTrials_rv
6345b7f49677d36bd07c5a10,EXP9a_JF,0,7d2de33f1c0e1235bff983d6b029de949199fc2bb2d69cf5074583daa421524c,2104.1458609104156,False,keypress,EXP9a_testRsp_rv,660,[],choice-response,Add,655e73d1a60ad4b436a1357f,2023-11-22 16:34:02-05:00,late_speech7,3576,301,EXP9a_maintaskTrials_rv
6345b7f49677d36bd07c5a10,EXP9a_JF,0,7d2de33f1c0e1235bff983d6b029de949199fc2bb2d69cf5074583daa421524c,2104.1458609104156,False,keypress,EXP9a_testRsp_rv,661,[],choice-response,Add,655e73d1a60ad4b436a1357f,2023-11-22 16:34:02-05:00,late_speech2,3500,302,EXP9a_maintaskTrials_rv
6345b7f49677d36bd07c5a10,EXP9a_JF,0,7d2de33f1c0e1235bff983d6b029de949199fc2bb2d69cf5074583daa421524c,2104.1458609104156,False,keypress,EXP9a_testRsp_rv,1427,[],choice-response,Add,655e73d1a60ad4b436a1357f,2023-11-22 16:34:02-05:00,late_speech3,4280,303,EXP9a_maintaskTrials_rv
6345b7f49677d36bd07c5a10,EXP9a_JF,0,7d2de33f1c0e1235bff983d6b029de949199fc2bb2d69cf5074583daa421524c,2104.1458609104156,False,keypress,EXP9a_testRsp_rv,275,[],choice-response,At,655e73d1a60ad4b436a1357f,2023-11-22 16:34:02-05:00,ontime_speech1,2986,304,EXP9a_maintaskTrials_rv
6345b7f49677d36bd07c5a10,EXP9a_JF,0,7d2de33f1c0e1235bff983d6b029de949199fc2bb2d69cf5074583daa421524c,2104.1458609104156,False,keypress,EXP9a_testRsp_rv,500,[],choice-response,At,655e73d1a60ad4b436a1357f,2023-11-22 16:34:02-05:00,ontime_speech3,3253,305,EXP9a_maintaskTrials_rv
6345b7f49677d36bd07c5a10,EXP9a_JF,0,7d2de33f1c0e1235bff983d6b029de949199fc2bb2d69cf5074583daa421524c,2104.1458609104156,False,keypress,EXP9a_testRsp_rv,420,[],choice-response,At,655e73d1a60ad4b436a1357f,2023-11-22 16:34:02-05:00,ontime_speech2,3146,306,EXP9a_maintaskTrials_rv
6345b7f49677d36bd07c5a10,EXP9a_JF,0,7d2de33f1c0e1235bff983d6b029de949199fc2bb2d69cf5074583daa421524c,2104.1458609104156,False,keypress,EXP9a_testRsp_rv,149,[],choice-response,Add,655e73d1a60ad4b436a1357f,2023-11-22 16:34:02-05:00,ontime_speech8,2999,307,EXP9a_maintaskTrials_rv
6345b7f49677d36bd07c5a10,EXP9a_JF,0,7d2de33f1c0e1235bff983d6b029de949199fc2bb2d69cf5074583daa421524c,2104.1458609104156,False,keypress,EXP9a_testRsp_rv,367,[],choice-response,At,655e73d1a60ad4b436a1357f,2023-11-22 16:34:02-05:00,early_speech1,2980,308,EXP9a_maintaskTrials_rv
6345b7f49677d36bd07c5a10,EXP9a_JF,0,7d2de33f1c0e1235bff983d6b029de949199fc2bb2d69cf5074583daa421524c,2104.1458609104156,False,keypress,EXP9a_testRsp_rv,294,[],choice-response,At,655e73d1a60ad4b436a1357f,2023-11-22 16:34:02-05:00,late_speech3,3147,309,EXP9a_maintaskTrials_rv
6345b7f49677d36bd07c5a10,EXP9a_JF,0,7d2de33f1c0e1235bff983d6b029de949199fc2bb2d69cf5074583daa421524c,2104.1458609104156,False,keypress,EXP9a_testRsp_rv,600,[],choice-response,Add,655e73d1a60ad4b436a1357f,2023-11-22 16:34:02-05:00,late_speech7,3520,310,EXP9a_maintaskTrials_rv
6345b7f49677d36bd07c5a10,EXP9a_JF,0,7d2de33f1c0e1235bff983d6b029de949199fc2bb2d69cf5074583daa421524c,2104.1458609104156,True,keypress,cat_catchRsp,1053,['Cat meowing'],choice-response,Cat meowing,655e73d1a60ad4b436a1357f,2023-11-22 16:34:02-05:00,cat_meowing,3466,311,Catch_trials
6345b7f49677d36bd07c5a10,EXP9a_JF,0,7d2de33f1c0e1235bff983d6b029de949199fc2bb2d69cf5074583daa421524c,2104.1458609104156,False,keypress,EXP9a_testRsp_rv,488,[],choice-response,At,655e73d1a60ad4b436a1357f,2023-11-22 16:34:02-05:00,late_speech4,3353,312,EXP9a_maintaskTrials_rv
6345b7f49677d36bd07c5a10,EXP9a_JF,0,7d2de33f1c0e1235bff983d6b029de949199fc2bb2d69cf5074583daa421524c,2104.1458609104156,False,keypress,EXP9a_testRsp_rv,505,[],choice-response,At,655e73d1a60ad4b436a1357f,2023-11-22 16:34:02-05:00,ontime_speech5,3309,313,EXP9a_maintaskTrials_rv
6345b7f49677d36bd07c5a10,EXP9a_JF,0,7d2de33f1c0e1235bff983d6b029de949199fc2bb2d69cf5074583daa421524c,2104.1458609104156,False,keypress,EXP9a_testRsp_rv,641,[],choice-response,Add,655e73d1a60ad4b436a1357f,2023-11-22 16:34:02-05:00,early_speech7,3376,314,EXP9a_maintaskTrials_rv
6345b7f49677d36bd07c5a10,EXP9a_JF,0,7d2de33f1c0e1235bff983d6b029de949199fc2bb2d69cf5074583daa421524c,2104.1458609104156,False,keypress,EXP9a_testRsp_rv,391,[],choice-response,Add,655e73d1a60ad4b436a1357f,2023-11-22 16:34:02-05:00,late_speech6,3285,315,EXP9a_maintaskTrials_rv
6345b7f49677d36bd07c5a10,EXP9a_JF,0,7d2de33f1c0e1235bff983d6b029de949199fc2bb2d69cf5074583daa421524c,2104.1458609104156,False,keypress,EXP9a_testRsp_rv,641,[],choice-response,Add,655e73d1a60ad4b436a1357f,2023-11-22 16:34:02-05:00,ontime_speech6,3446,316,EXP9a_maintaskTrials_rv
6345b7f49677d36bd07c5a10,EXP9a_JF,0,7d2de33f1c0e1235bff983d6b029de949199fc2bb2d69cf5074583daa421524c,2104.1458609104156,False,keypress,EXP9a_testRsp_rv,276,[],choice-response,Add,655e73d1a60ad4b436a1357f,2023-11-22 16:34:02-05:00,late_speech8,3219,317,EXP9a_maintaskTrials_rv
6345b7f49677d36bd07c5a10,EXP9a_JF,0,7d2de33f1c0e1235bff983d6b029de949199fc2bb2d69cf5074583daa421524c,2104.1458609104156,False,keypress,EXP9a_testRsp_rv,247,[],choice-response,Add,655e73d1a60ad4b436a1357f,2023-11-22 16:34:02-05:00,ontime_speech7,3073,318,EXP9a_maintaskTrials_rv
6345b7f49677d36bd07c5a10,EXP9a_JF,0,7d2de33f1c0e1235bff983d6b029de949199fc2bb2d69cf5074583daa421524c,2104.1458609104156,False,keypress,EXP9a_testRsp_rv,355,[],choice-response,Add,655e73d1a60ad4b436a1357f,2023-11-22 16:34:02-05:00,early_speech6,3090,319,EXP9a_maintaskTrials_rv
6345b7f49677d36bd07c5a10,EXP9a_JF,0,7d2de33f1c0e1235bff983d6b029de949199fc2bb2d69cf5074583daa421524c,2104.1458609104156,False,keypress,EXP9a_testRsp_rv,355,[],choice-response,At,655e73d1a60ad4b436a1357f,2023-11-22 16:34:02-05:00,early_speech2,2991,320,EXP9a_maintaskTrials_rv
6345b7f49677d36bd07c5a10,EXP9a_JF,0,7d2de33f1c0e1235bff983d6b029de949199fc2bb2d69cf5074583daa421524c,2104.1458609104156,False,keypress,EXP9a_testRsp_rv,279,[],choice-response,At,655e73d1a60ad4b436a1357f,2023-11-22 16:34:02-05:00,early_speech5,2982,321,EXP9a_maintaskTrials_rv
6345b7f49677d36bd07c5a10,EXP9a_JF,0,7d2de33f1c0e1235bff983d6b029de949199fc2bb2d69cf5074583daa421524c,2104.1458609104156,False,keypress,EXP9a_testRsp_rv,530,[],choice-response,At,655e73d1a60ad4b436a1357f,2023-11-22 16:34:02-05:00,early_speech3,3186,322,EXP9a_maintaskTrials_rv
6345b7f49677d36bd07c5a10,EXP9a_JF,0,7d2de33f1c0e1235bff983d6b029de949199fc2bb2d69cf5074583daa421524c,2104.1458609104156,True,keypress,bird_catchRsp,990,['Bird singing'],choice-response,Bird singing,655e73d1a60ad4b436a1357f,2023-11-22 16:34:02-05:00,songbird,3400,323,Catch_trials
6345b7f49677d36bd07c5a10,EXP9a_JF,0,7d2de33f1c0e1235bff983d6b029de949199fc2bb2d69cf5074583daa421524c,2104.1458609104156,False,keypress,EXP9a_testRsp_rv,994,[],choice-response,At,655e73d1a60ad4b436a1357f,2023-11-22 16:34:02-05:00,ontime_speech4,3775,324,EXP9a_maintaskTrials_rv
6345b7f49677d36bd07c5a10,EXP9a_JF,0,7d2de33f1c0e1235bff983d6b029de949199fc2bb2d69cf5074583daa421524c,2104.1458609104156,False,keypress,EXP9a_testRsp_rv,241,[],choice-response,Add,655e73d1a60ad4b436a1357f,2023-11-22 16:34:02-05:00,early_speech8,2998,325,EXP9a_maintaskTrials_rv
6345b7f49677d36bd07c5a10,EXP9a_JF,0,7d2de33f1c0e1235bff983d6b029de949199fc2bb2d69cf5074583daa421524c,2104.1458609104156,False,keypress,EXP9a_testRsp_rv,512,[],choice-response,At,655e73d1a60ad4b436a1357f,2023-11-22 16:34:02-05:00,early_speech4,3193,326,EXP9a_maintaskTrials_rv
6345b7f49677d36bd07c5a10,EXP9a_JF,0,7d2de33f1c0e1235bff983d6b029de949199fc2bb2d69cf5074583daa421524c,2104.1458609104156,False,keypress,EXP9a_testRsp_rv,490,[],choice-response,At,655e73d1a60ad4b436a1357f,2023-11-22 16:34:02-05:00,late_speech5,3364,327,EXP9a_maintaskTrials_rv
6345b7f49677d36bd07c5a10,EXP9a_JF,0,7d2de33f1c0e1235bff983d6b029de949199fc2bb2d69cf5074583daa421524c,2104.1458609104156,False,keypress,EXP9a_testRsp_rv,378,[],choice-response,At,655e73d1a60ad4b436a1357f,2023-11-22 16:34:02-05:00,late_speech2,3202,328,EXP9a_maintaskTrials_rv
6345b7f49677d36bd07c5a10,EXP9a_JF,0,7d2de33f1c0e1235bff983d6b029de949199fc2bb2d69cf5074583daa421524c,2104.1458609104156,False,keypress,EXP9a_testRsp_rv,514,[],choice-response,Add,655e73d1a60ad4b436a1357f,2023-11-22 16:34:02-05:00,late_speech1,3313,329,EXP9a_maintaskTrials_rv
6345b7f49677d36bd07c5a10,EXP9a_JF,0,7d2de33f1c0e1235bff983d6b029de949199fc2bb2d69cf5074583daa421524c,2104.1458609104156,False,keypress,EXP9a_testRsp_rv,300,[],choice-response,Add,655e73d1a60ad4b436a1357f,2023-11-22 16:34:02-05:00,late_speech1,3104,330,EXP9a_maintaskTrials_rv
6345b7f49677d36bd07c5a10,EXP9a_JF,0,7d2de33f1c0e1235bff983d6b029de949199fc2bb2d69cf5074583daa421524c,2104.1458609104156,False,keypress,EXP9a_testRsp_rv,180,[],choice-response,Add,655e73d1a60ad4b436a1357f,2023-11-22 16:34:02-05:00,ontime_speech4,2959,331,EXP9a_maintaskTrials_rv
6345b7f49677d36bd07c5a10,EXP9a_JF,0,7d2de33f1c0e1235bff983d6b029de949199fc2bb2d69cf5074583daa421524c,2104.1458609104156,False,keypress,EXP9a_testRsp_rv,210,[],choice-response,Add,655e73d1a60ad4b436a1357f,2023-11-22 16:34:02-05:00,early_speech6,2946,332,EXP9a_maintaskTrials_rv
6345b7f49677d36bd07c5a10,EXP9a_JF,0,7d2de33f1c0e1235bff983d6b029de949199fc2bb2d69cf5074583daa421524c,2104.1458609104156,False,keypress,EXP9a_testRsp_rv,839,[],choice-response,At,655e73d1a60ad4b436a1357f,2023-11-22 16:34:02-05:00,early_speech2,3478,333,EXP9a_maintaskTrials_rv
6345b7f49677d36bd07c5a10,EXP9a_JF,0,7d2de33f1c0e1235bff983d6b029de949199fc2bb2d69cf5074583daa421524c,2104.1458609104156,False,keypress,EXP9a_testRsp_rv,288,[],choice-response,At,655e73d1a60ad4b436a1357f,2023-11-22 16:34:02-05:00,ontime_speech1,2999,334,EXP9a_maintaskTrials_rv
6345b7f49677d36bd07c5a10,EXP9a_JF,0,7d2de33f1c0e1235bff983d6b029de949199fc2bb2d69cf5074583daa421524c,2104.1458609104156,True,keypress,cat_catchRsp,981,['Cat meowing'],choice-response,Cat meowing,655e73d1a60ad4b436a1357f,2023-11-22 16:34:02-05:00,cat_meowing,3378,335,Catch_trials
6345b7f49677d36bd07c5a10,EXP9a_JF,0,7d2de33f1c0e1235bff983d6b029de949199fc2bb2d69cf5074583daa421524c,2104.1458609104156,False,keypress,EXP9a_testRsp_rv,684,[],choice-response,At,655e73d1a60ad4b436a1357f,2023-11-22 16:34:02-05:00,ontime_speech5,3489,336,EXP9a_maintaskTrials_rv
6345b7f49677d36bd07c5a10,EXP9a_JF,0,7d2de33f1c0e1235bff983d6b029de949199fc2bb2d69cf5074583daa421524c,2104.1458609104156,False,keypress,EXP9a_testRsp_rv,935,[],choice-response,At,655e73d1a60ad4b436a1357f,2023-11-22 16:34:02-05:00,early_speech4,3617,337,EXP9a_maintaskTrials_rv
6345b7f49677d36bd07c5a10,EXP9a_JF,0,7d2de33f1c0e1235bff983d6b029de949199fc2bb2d69cf5074583daa421524c,2104.1458609104156,False,keypress,EXP9a_testRsp_rv,310,[],choice-response,Add,655e73d1a60ad4b436a1357f,2023-11-22 16:34:02-05:00,ontime_speech8,3152,338,EXP9a_maintaskTrials_rv
6345b7f49677d36bd07c5a10,EXP9a_JF,0,7d2de33f1c0e1235bff983d6b029de949199fc2bb2d69cf5074583daa421524c,2104.1458609104156,False,keypress,EXP9a_testRsp_rv,331,[],choice-response,Add,655e73d1a60ad4b436a1357f,2023-11-22 16:34:02-05:00,early_speech5,3033,339,EXP9a_maintaskTrials_rv
6345b7f49677d36bd07c5a10,EXP9a_JF,0,7d2de33f1c0e1235bff983d6b029de949199fc2bb2d69cf5074583daa421524c,2104.1458609104156,False,keypress,EXP9a_testRsp_rv,310,[],choice-response,Add,655e73d1a60ad4b436a1357f,2023-11-22 16:34:02-05:00,ontime_speech6,3107,340,EXP9a_maintaskTrials_rv
6345b7f49677d36bd07c5a10,EXP9a_JF,0,7d2de33f1c0e1235bff983d6b029de949199fc2bb2d69cf5074583daa421524c,2104.1458609104156,False,keypress,EXP9a_testRsp_rv,384,[],choice-response,Add,655e73d1a60ad4b436a1357f,2023-11-22 16:34:02-05:00,early_speech8,3133,341,EXP9a_maintaskTrials_rv
6345b7f49677d36bd07c5a10,EXP9a_JF,0,7d2de33f1c0e1235bff983d6b029de949199fc2bb2d69cf5074583daa421524c,2104.1458609104156,False,keypress,EXP9a_testRsp_rv,891,[],choice-response,Add,655e73d1a60ad4b436a1357f,2023-11-22 16:34:02-05:00,late_speech2,3710,342,EXP9a_maintaskTrials_rv
6345b7f49677d36bd07c5a10,EXP9a_JF,0,7d2de33f1c0e1235bff983d6b029de949199fc2bb2d69cf5074583daa421524c,2104.1458609104156,False,keypress,EXP9a_testRsp_rv,749,[],choice-response,Add,655e73d1a60ad4b436a1357f,2023-11-22 16:34:02-05:00,early_speech1,3363,343,EXP9a_maintaskTrials_rv
6345b7f49677d36bd07c5a10,EXP9a_JF,0,7d2de33f1c0e1235bff983d6b029de949199fc2bb2d69cf5074583daa421524c,2104.1458609104156,False,keypress,EXP9a_testRsp_rv,320,[],choice-response,Add,655e73d1a60ad4b436a1357f,2023-11-22 16:34:02-05:00,late_speech7,3233,344,EXP9a_maintaskTrials_rv
6345b7f49677d36bd07c5a10,EXP9a_JF,0,7d2de33f1c0e1235bff983d6b029de949199fc2bb2d69cf5074583daa421524c,2104.1458609104156,False,keypress,EXP9a_testRsp_rv,171,[],choice-response,Add,655e73d1a60ad4b436a1357f,2023-11-22 16:34:02-05:00,late_speech6,3068,345,EXP9a_maintaskTrials_rv
6345b7f49677d36bd07c5a10,EXP9a_JF,0,7d2de33f1c0e1235bff983d6b029de949199fc2bb2d69cf5074583daa421524c,2104.1458609104156,False,keypress,EXP9a_testRsp_rv,196,[],choice-response,Add,655e73d1a60ad4b436a1357f,2023-11-22 16:34:02-05:00,late_speech8,3135,346,EXP9a_maintaskTrials_rv
6345b7f49677d36bd07c5a10,EXP9a_JF,0,7d2de33f1c0e1235bff983d6b029de949199fc2bb2d69cf5074583daa421524c,2104.1458609104156,True,keypress,bird_catchRsp,765,['Bird singing'],choice-response,Bird singing,655e73d1a60ad4b436a1357f,2023-11-22 16:34:02-05:00,songbird,3174,347,Catch_trials
6345b7f49677d36bd07c5a10,EXP9a_JF,0,7d2de33f1c0e1235bff983d6b029de949199fc2bb2d69cf5074583daa421524c,2104.1458609104156,False,keypress,EXP9a_testRsp_rv,812,[],choice-response,At,655e73d1a60ad4b436a1357f,2023-11-22 16:34:02-05:00,late_speech5,3685,348,EXP9a_maintaskTrials_rv
6345b7f49677d36bd07c5a10,EXP9a_JF,0,7d2de33f1c0e1235bff983d6b029de949199fc2bb2d69cf5074583daa421524c,2104.1458609104156,False,keypress,EXP9a_testRsp_rv,308,[],choice-response,Add,655e73d1a60ad4b436a1357f,2023-11-22 16:34:02-05:00,ontime_speech7,3142,349,EXP9a_maintaskTrials_rv
6345b7f49677d36bd07c5a10,EXP9a_JF,0,7d2de33f1c0e1235bff983d6b029de949199fc2bb2d69cf5074583daa421524c,2104.1458609104156,False,keypress,EXP9a_testRsp_rv,919,[],choice-response,At,655e73d1a60ad4b436a1357f,2023-11-22 16:34:02-05:00,late_speech3,3766,350,EXP9a_maintaskTrials_rv
6345b7f49677d36bd07c5a10,EXP9a_JF,0,7d2de33f1c0e1235bff983d6b029de949199fc2bb2d69cf5074583daa421524c,2104.1458609104156,False,keypress,EXP9a_testRsp_rv,472,[],choice-response,At,655e73d1a60ad4b436a1357f,2023-11-22 16:34:02-05:00,ontime_speech2,3207,351,EXP9a_maintaskTrials_rv
6345b7f49677d36bd07c5a10,EXP9a_JF,0,7d2de33f1c0e1235bff983d6b029de949199fc2bb2d69cf5074583daa421524c,2104.1458609104156,False,keypress,EXP9a_testRsp_rv,548,[],choice-response,Add,655e73d1a60ad4b436a1357f,2023-11-22 16:34:02-05:00,late_speech4,3415,352,EXP9a_maintaskTrials_rv
6345b7f49677d36bd07c5a10,EXP9a_JF,0,7d2de33f1c0e1235bff983d6b029de949199fc2bb2d69cf5074583daa421524c,2104.1458609104156,False,keypress,EXP9a_testRsp_rv,479,[],choice-response,Add,655e73d1a60ad4b436a1357f,2023-11-22 16:34:02-05:00,ontime_speech3,3236,353,EXP9a_maintaskTrials_rv
6345b7f49677d36bd07c5a10,EXP9a_JF,0,7d2de33f1c0e1235bff983d6b029de949199fc2bb2d69cf5074583daa421524c,2104.1458609104156,False,keypress,EXP9a_testRsp_rv,472,[],choice-response,Add,655e73d1a60ad4b436a1357f,2023-11-22 16:34:02-05:00,early_speech7,3204,354,EXP9a_maintaskTrials_rv
6345b7f49677d36bd07c5a10,EXP9a_JF,0,7d2de33f1c0e1235bff983d6b029de949199fc2bb2d69cf5074583daa421524c,2104.1458609104156,False,keypress,EXP9a_testRsp_rv,470,[],choice-response,At,655e73d1a60ad4b436a1357f,2023-11-22 16:34:02-05:00,early_speech3,3129,355,EXP9a_maintaskTrials_rv
6345b7f49677d36bd07c5a10,EXP9a_JF,0,7d2de33f1c0e1235bff983d6b029de949199fc2bb2d69cf5074583daa421524c,2104.1458609104156,False,keypress,EXP9a_testRsp_rv,319,[],choice-response,At,655e73d1a60ad4b436a1357f,2023-11-22 16:34:02-05:00,late_speech2,3140,356,EXP9a_maintaskTrials_rv
6345b7f49677d36bd07c5a10,EXP9a_JF,0,7d2de33f1c0e1235bff983d6b029de949199fc2bb2d69cf5074583daa421524c,2104.1458609104156,False,keypress,EXP9a_testRsp_rv,253,[],choice-response,Add,655e73d1a60ad4b436a1357f,2023-11-22 16:34:02-05:00,ontime_speech7,3078,357,EXP9a_maintaskTrials_rv
6345b7f49677d36bd07c5a10,EXP9a_JF,0,7d2de33f1c0e1235bff983d6b029de949199fc2bb2d69cf5074583daa421524c,2104.1458609104156,False,keypress,EXP9a_testRsp_rv,156,[],choice-response,Add,655e73d1a60ad4b436a1357f,2023-11-22 16:34:02-05:00,early_speech2,2795,358,EXP9a_maintaskTrials_rv
6345b7f49677d36bd07c5a10,EXP9a_JF,0,7d2de33f1c0e1235bff983d6b029de949199fc2bb2d69cf5074583daa421524c,2104.1458609104156,True,keypress,cat_catchRsp,777,['Cat meowing'],choice-response,Cat meowing,655e73d1a60ad4b436a1357f,2023-11-22 16:34:02-05:00,cat_meowing,3186,359,Catch_trials
6345b7f49677d36bd07c5a10,EXP9a_JF,0,7d2de33f1c0e1235bff983d6b029de949199fc2bb2d69cf5074583daa421524c,2104.1458609104156,False,keypress,EXP9a_testRsp_rv,609,[],choice-response,At,655e73d1a60ad4b436a1357f,2023-11-22 16:34:02-05:00,late_speech1,3412,360,EXP9a_maintaskTrials_rv
6345b7f49677d36bd07c5a10,EXP9a_JF,0,7d2de33f1c0e1235bff983d6b029de949199fc2bb2d69cf5074583daa421524c,2104.1458609104156,False,keypress,EXP9a_testRsp_rv,374,[],choice-response,Add,655e73d1a60ad4b436a1357f,2023-11-22 16:34:02-05:00,early_speech4,3059,361,EXP9a_maintaskTrials_rv
6345b7f49677d36bd07c5a10,EXP9a_JF,0,7d2de33f1c0e1235bff983d6b029de949199fc2bb2d69cf5074583daa421524c,2104.1458609104156,False,keypress,EXP9a_testRsp_rv,495,[],choice-response,Add,655e73d1a60ad4b436a1357f,2023-11-22 16:34:02-05:00,ontime_speech4,3272,362,EXP9a_maintaskTrials_rv
6345b7f49677d36bd07c5a10,EXP9a_JF,0,7d2de33f1c0e1235bff983d6b029de949199fc2bb2d69cf5074583daa421524c,2104.1458609104156,False,keypress,EXP9a_testRsp_rv,713,[],choice-response,Add,655e73d1a60ad4b436a1357f,2023-11-22 16:34:02-05:00,early_speech6,3442,363,EXP9a_maintaskTrials_rv
6345b7f49677d36bd07c5a10,EXP9a_JF,0,7d2de33f1c0e1235bff983d6b029de949199fc2bb2d69cf5074583daa421524c,2104.1458609104156,False,keypress,EXP9a_testRsp_rv,257,[],choice-response,Add,655e73d1a60ad4b436a1357f,2023-11-22 16:34:02-05:00,late_speech8,3201,364,EXP9a_maintaskTrials_rv
