expt_id,group_id,network_error_repeat,participant_id,participation_duration,response_correct,response_mode,response_name,response_rt,response_target,response_type,response_value,session_id,stimuli_presented,trial_duration,trial_num,trial_template
607affb9d112a7e23c03a96d,Group_FJ,0,52a990b3122680c5997bd313b7d6c0868bc4bd61a8a5bd9b06d3983cdcabd842,2825.66326212883,False,click,survey_noise,6726,[],choice-response,1,618f9adba4bd53a30fa816db,logistics_noise,9277,1,logisticsQuestionnaire
607affb9d112a7e23c03a96d,Group_FJ,0,52a990b3122680c5997bd313b7d6c0868bc4bd61a8a5bd9b06d3983cdcabd842,2825.66326212883,False,click,survey_headphone1,66647,[],choice-response,Yes,618f9adba4bd53a30fa816db,logistic_headphone1,67550,2,logisticsQuestionnaire
607affb9d112a7e23c03a96d,Group_FJ,0,52a990b3122680c5997bd313b7d6c0868bc4bd61a8a5bd9b06d3983cdcabd842,2825.66326212883,False,click,survey_headphone2,3253,[],choice-response,Wired Headphones,618f9adba4bd53a30fa816db,logistic_headphone2,10316,3,logisticsQuestionnaire
607affb9d112a7e23c03a96d,Group_FJ,0,52a990b3122680c5997bd313b7d6c0868bc4bd61a8a5bd9b06d3983cdcabd842,2825.66326212883,False,keypress,prescreenRsp_beadbeat,3306,[],choice-response,Bead,618f9adba4bd53a30fa816db,Bead,4868,4,PrescreenTrials
607affb9d112a7e23c03a96d,Group_FJ,0,52a990b3122680c5997bd313b7d6c0868bc4bd61a8a5bd9b06d3983cdcabd842,2825.66326212883,False,keypress,prescreenRsp_bagback,1767,[],choice-response,Bag,618f9adba4bd53a30fa816db,Bag,2906,5,PrescreenTrials
607affb9d112a7e23c03a96d,Group_FJ,0,52a990b3122680c5997bd313b7d6c0868bc4bd61a8a5bd9b06d3983cdcabd842,2825.66326212883,False,keypress,prescreenRsp_laglack,1828,[],choice-response,Lack,618f9adba4bd53a30fa816db,Lack,2838,6,PrescreenTrials
607affb9d112a7e23c03a96d,Group_FJ,0,52a990b3122680c5997bd313b7d6c0868bc4bd61a8a5bd9b06d3983cdcabd842,2825.66326212883,False,keypress,prescreenRsp_fadfat,1217,[],choice-response,Fat,618f9adba4bd53a30fa816db,Fat,2389,7,PrescreenTrials
607affb9d112a7e23c03a96d,Group_FJ,0,52a990b3122680c5997bd313b7d6c0868bc4bd61a8a5bd9b06d3983cdcabd842,2825.66326212883,False,keypress,prescreenRsp_beadbeat,1723,[],choice-response,Beat,618f9adba4bd53a30fa816db,Beat,2763,8,PrescreenTrials
607affb9d112a7e23c03a96d,Group_FJ,0,52a990b3122680c5997bd313b7d6c0868bc4bd61a8a5bd9b06d3983cdcabd842,2825.66326212883,False,keypress,prescreenRsp_lablap,1598,[],choice-response,Lab,618f9adba4bd53a30fa816db,Lap,2559,9,PrescreenTrials
607affb9d112a7e23c03a96d,Group_FJ,0,52a990b3122680c5997bd313b7d6c0868bc4bd61a8a5bd9b06d3983cdcabd842,2825.66326212883,False,keypress,prescreenRsp_lablap,1531,[],choice-response,Lab,618f9adba4bd53a30fa816db,Lab,2723,10,PrescreenTrials
607affb9d112a7e23c03a96d,Group_FJ,0,52a990b3122680c5997bd313b7d6c0868bc4bd61a8a5bd9b06d3983cdcabd842,2825.66326212883,False,keypress,prescreenRsp_fadfat,1330,[],choice-response,Fad,618f9adba4bd53a30fa816db,Fad,2728,11,PrescreenTrials
607affb9d112a7e23c03a96d,Group_FJ,0,52a990b3122680c5997bd313b7d6c0868bc4bd61a8a5bd9b06d3983cdcabd842,2825.66326212883,False,keypress,prescreenRsp_cabcap,1291,[],choice-response,Cab,618f9adba4bd53a30fa816db,Cab,2452,12,PrescreenTrials
607affb9d112a7e23c03a96d,Group_FJ,0,52a990b3122680c5997bd313b7d6c0868bc4bd61a8a5bd9b06d3983cdcabd842,2825.66326212883,False,keypress,prescreenRsp_bagback,2135,[],choice-response,Bag,618f9adba4bd53a30fa816db,Back,3221,13,PrescreenTrials
607affb9d112a7e23c03a96d,Group_FJ,0,52a990b3122680c5997bd313b7d6c0868bc4bd61a8a5bd9b06d3983cdcabd842,2825.66326212883,False,keypress,prescreenRsp_laglack,1100,[],choice-response,Lag,618f9adba4bd53a30fa816db,Lag,2299,14,PrescreenTrials
607affb9d112a7e23c03a96d,Group_FJ,0,52a990b3122680c5997bd313b7d6c0868bc4bd61a8a5bd9b06d3983cdcabd842,2825.66326212883,False,keypress,prescreenRsp_cabcap,768,[],choice-response,Cap,618f9adba4bd53a30fa816db,Cap,1765,15,PrescreenTrials
607affb9d112a7e23c03a96d,Group_FJ,0,52a990b3122680c5997bd313b7d6c0868bc4bd61a8a5bd9b06d3983cdcabd842,2825.66326212883,False,keypress,prescreenRsp_fadfat,970,[],choice-response,Fad,618f9adba4bd53a30fa816db,Fad,2012,16,PrescreenTrials
607affb9d112a7e23c03a96d,Group_FJ,0,52a990b3122680c5997bd313b7d6c0868bc4bd61a8a5bd9b06d3983cdcabd842,2825.66326212883,False,keypress,prescreenRsp_lablap,831,[],choice-response,Lap,618f9adba4bd53a30fa816db,Lap,1789,17,PrescreenTrials
607affb9d112a7e23c03a96d,Group_FJ,0,52a990b3122680c5997bd313b7d6c0868bc4bd61a8a5bd9b06d3983cdcabd842,2825.66326212883,False,keypress,prescreenRsp_bagback,1148,[],choice-response,Bag,618f9adba4bd53a30fa816db,Back,2099,18,PrescreenTrials
607affb9d112a7e23c03a96d,Group_FJ,0,52a990b3122680c5997bd313b7d6c0868bc4bd61a8a5bd9b06d3983cdcabd842,2825.66326212883,False,keypress,prescreenRsp_fadfat,1872,[],choice-response,Fat,618f9adba4bd53a30fa816db,Fat,3003,19,PrescreenTrials
607affb9d112a7e23c03a96d,Group_FJ,0,52a990b3122680c5997bd313b7d6c0868bc4bd61a8a5bd9b06d3983cdcabd842,2825.66326212883,False,keypress,prescreenRsp_beadbeat,929,[],choice-response,Beat,618f9adba4bd53a30fa816db,Beat,1904,20,PrescreenTrials
607affb9d112a7e23c03a96d,Group_FJ,0,52a990b3122680c5997bd313b7d6c0868bc4bd61a8a5bd9b06d3983cdcabd842,2825.66326212883,False,keypress,prescreenRsp_bagback,908,[],choice-response,Bag,618f9adba4bd53a30fa816db,Bag,2074,21,PrescreenTrials
607affb9d112a7e23c03a96d,Group_FJ,0,52a990b3122680c5997bd313b7d6c0868bc4bd61a8a5bd9b06d3983cdcabd842,2825.66326212883,False,keypress,prescreenRsp_cabcap,678,[],choice-response,Cap,618f9adba4bd53a30fa816db,Cap,1629,22,PrescreenTrials
607affb9d112a7e23c03a96d,Group_FJ,0,52a990b3122680c5997bd313b7d6c0868bc4bd61a8a5bd9b06d3983cdcabd842,2825.66326212883,False,keypress,prescreenRsp_beadbeat,2107,[],choice-response,Bead,618f9adba4bd53a30fa816db,Bead,3302,23,PrescreenTrials
607affb9d112a7e23c03a96d,Group_FJ,0,52a990b3122680c5997bd313b7d6c0868bc4bd61a8a5bd9b06d3983cdcabd842,2825.66326212883,False,keypress,prescreenRsp_lablap,2849,[],choice-response,Lab,618f9adba4bd53a30fa816db,Lab,4128,24,PrescreenTrials
607affb9d112a7e23c03a96d,Group_FJ,0,52a990b3122680c5997bd313b7d6c0868bc4bd61a8a5bd9b06d3983cdcabd842,2825.66326212883,False,keypress,prescreenRsp_cabcap,1608,[],choice-response,Cab,618f9adba4bd53a30fa816db,Cab,3008,25,PrescreenTrials
607affb9d112a7e23c03a96d,Group_FJ,0,52a990b3122680c5997bd313b7d6c0868bc4bd61a8a5bd9b06d3983cdcabd842,2825.66326212883,False,keypress,prescreenRsp_laglack,2165,[],choice-response,Lack,618f9adba4bd53a30fa816db,Lack,3250,26,PrescreenTrials
607affb9d112a7e23c03a96d,Group_FJ,0,52a990b3122680c5997bd313b7d6c0868bc4bd61a8a5bd9b06d3983cdcabd842,2825.66326212883,False,keypress,prescreenRsp_laglack,1096,[],choice-response,Lag,618f9adba4bd53a30fa816db,Lag,2311,27,PrescreenTrials
607affb9d112a7e23c03a96d,Group_FJ,0,52a990b3122680c5997bd313b7d6c0868bc4bd61a8a5bd9b06d3983cdcabd842,2825.66326212883,False,keypress,prescreenRsp_beadbeat,1386,[],choice-response,Bead,618f9adba4bd53a30fa816db,Bead,2365,28,PrescreenTrials
607affb9d112a7e23c03a96d,Group_FJ,0,52a990b3122680c5997bd313b7d6c0868bc4bd61a8a5bd9b06d3983cdcabd842,2825.66326212883,False,keypress,prescreenRsp_bagback,879,[],choice-response,Back,618f9adba4bd53a30fa816db,Back,2027,29,PrescreenTrials
607affb9d112a7e23c03a96d,Group_FJ,0,52a990b3122680c5997bd313b7d6c0868bc4bd61a8a5bd9b06d3983cdcabd842,2825.66326212883,False,keypress,prescreenRsp_cabcap,1179,[],choice-response,Cab,618f9adba4bd53a30fa816db,Cab,2500,30,PrescreenTrials
607affb9d112a7e23c03a96d,Group_FJ,0,52a990b3122680c5997bd313b7d6c0868bc4bd61a8a5bd9b06d3983cdcabd842,2825.66326212883,False,keypress,prescreenRsp_cabcap,1456,[],choice-response,Cap,618f9adba4bd53a30fa816db,Cap,2407,31,PrescreenTrials
607affb9d112a7e23c03a96d,Group_FJ,0,52a990b3122680c5997bd313b7d6c0868bc4bd61a8a5bd9b06d3983cdcabd842,2825.66326212883,False,keypress,prescreenRsp_laglack,1140,[],choice-response,Lack,618f9adba4bd53a30fa816db,Lack,2187,32,PrescreenTrials
607affb9d112a7e23c03a96d,Group_FJ,0,52a990b3122680c5997bd313b7d6c0868bc4bd61a8a5bd9b06d3983cdcabd842,2825.66326212883,False,keypress,prescreenRsp_laglack,1662,[],choice-response,Lag,618f9adba4bd53a30fa816db,Lag,2893,33,PrescreenTrials
607affb9d112a7e23c03a96d,Group_FJ,0,52a990b3122680c5997bd313b7d6c0868bc4bd61a8a5bd9b06d3983cdcabd842,2825.66326212883,False,keypress,prescreenRsp_beadbeat,1410,[],choice-response,Beat,618f9adba4bd53a30fa816db,Beat,2530,34,PrescreenTrials
607affb9d112a7e23c03a96d,Group_FJ,0,52a990b3122680c5997bd313b7d6c0868bc4bd61a8a5bd9b06d3983cdcabd842,2825.66326212883,False,keypress,prescreenRsp_fadfat,1064,[],choice-response,Fad,618f9adba4bd53a30fa816db,Fad,2411,35,PrescreenTrials
607affb9d112a7e23c03a96d,Group_FJ,0,52a990b3122680c5997bd313b7d6c0868bc4bd61a8a5bd9b06d3983cdcabd842,2825.66326212883,False,keypress,prescreenRsp_bagback,993,[],choice-response,Bag,618f9adba4bd53a30fa816db,Bag,2130,36,PrescreenTrials
607affb9d112a7e23c03a96d,Group_FJ,0,52a990b3122680c5997bd313b7d6c0868bc4bd61a8a5bd9b06d3983cdcabd842,2825.66326212883,False,keypress,prescreenRsp_lablap,919,[],choice-response,Lap,618f9adba4bd53a30fa816db,Lap,1928,37,PrescreenTrials
607affb9d112a7e23c03a96d,Group_FJ,0,52a990b3122680c5997bd313b7d6c0868bc4bd61a8a5bd9b06d3983cdcabd842,2825.66326212883,False,keypress,prescreenRsp_lablap,1227,[],choice-response,Lab,618f9adba4bd53a30fa816db,Lab,2380,38,PrescreenTrials
607affb9d112a7e23c03a96d,Group_FJ,0,52a990b3122680c5997bd313b7d6c0868bc4bd61a8a5bd9b06d3983cdcabd842,2825.66326212883,False,keypress,prescreenRsp_fadfat,2296,[],choice-response,Fat,618f9adba4bd53a30fa816db,Fat,3560,39,PrescreenTrials
607affb9d112a7e23c03a96d,Group_FJ,0,52a990b3122680c5997bd313b7d6c0868bc4bd61a8a5bd9b06d3983cdcabd842,2825.66326212883,False,keypress,prescreenRsp_beadbeat,2132,[],choice-response,Bead,618f9adba4bd53a30fa816db,Bead,3041,40,PrescreenTrials
607affb9d112a7e23c03a96d,Group_FJ,0,52a990b3122680c5997bd313b7d6c0868bc4bd61a8a5bd9b06d3983cdcabd842,2825.66326212883,False,keypress,prescreenRsp_beadbeat,624,[],choice-response,Beat,618f9adba4bd53a30fa816db,Beat,1688,41,PrescreenTrials
607affb9d112a7e23c03a96d,Group_FJ,0,52a990b3122680c5997bd313b7d6c0868bc4bd61a8a5bd9b06d3983cdcabd842,2825.66326212883,False,keypress,prescreenRsp_cabcap,718,[],choice-response,Cap,618f9adba4bd53a30fa816db,Cap,1745,42,PrescreenTrials
607affb9d112a7e23c03a96d,Group_FJ,0,52a990b3122680c5997bd313b7d6c0868bc4bd61a8a5bd9b06d3983cdcabd842,2825.66326212883,False,keypress,prescreenRsp_laglack,1008,[],choice-response,Lag,618f9adba4bd53a30fa816db,Lag,2337,43,PrescreenTrials
607affb9d112a7e23c03a96d,Group_FJ,0,52a990b3122680c5997bd313b7d6c0868bc4bd61a8a5bd9b06d3983cdcabd842,2825.66326212883,False,keypress,prescreenRsp_bagback,1129,[],choice-response,Bag,618f9adba4bd53a30fa816db,Back,2170,44,PrescreenTrials
607affb9d112a7e23c03a96d,Group_FJ,0,52a990b3122680c5997bd313b7d6c0868bc4bd61a8a5bd9b06d3983cdcabd842,2825.66326212883,False,keypress,prescreenRsp_laglack,833,[],choice-response,Lack,618f9adba4bd53a30fa816db,Lack,1834,45,PrescreenTrials
607affb9d112a7e23c03a96d,Group_FJ,0,52a990b3122680c5997bd313b7d6c0868bc4bd61a8a5bd9b06d3983cdcabd842,2825.66326212883,False,keypress,prescreenRsp_bagback,1722,[],choice-response,Bag,618f9adba4bd53a30fa816db,Bag,2955,46,PrescreenTrials
607affb9d112a7e23c03a96d,Group_FJ,0,52a990b3122680c5997bd313b7d6c0868bc4bd61a8a5bd9b06d3983cdcabd842,2825.66326212883,False,keypress,prescreenRsp_lablap,775,[],choice-response,Lap,618f9adba4bd53a30fa816db,Lap,1862,47,PrescreenTrials
607affb9d112a7e23c03a96d,Group_FJ,0,52a990b3122680c5997bd313b7d6c0868bc4bd61a8a5bd9b06d3983cdcabd842,2825.66326212883,False,keypress,prescreenRsp_fadfat,2805,[],choice-response,Fat,618f9adba4bd53a30fa816db,Fat,3967,48,PrescreenTrials
607affb9d112a7e23c03a96d,Group_FJ,0,52a990b3122680c5997bd313b7d6c0868bc4bd61a8a5bd9b06d3983cdcabd842,2825.66326212883,False,keypress,prescreenRsp_fadfat,748,[],choice-response,Fad,618f9adba4bd53a30fa816db,Fad,2188,49,PrescreenTrials
607affb9d112a7e23c03a96d,Group_FJ,0,52a990b3122680c5997bd313b7d6c0868bc4bd61a8a5bd9b06d3983cdcabd842,2825.66326212883,False,keypress,prescreenRsp_lablap,1174,[],choice-response,Lab,618f9adba4bd53a30fa816db,Lab,2527,50,PrescreenTrials
607affb9d112a7e23c03a96d,Group_FJ,0,52a990b3122680c5997bd313b7d6c0868bc4bd61a8a5bd9b06d3983cdcabd842,2825.66326212883,False,keypress,prescreenRsp_cabcap,1016,[],choice-response,Cab,618f9adba4bd53a30fa816db,Cab,2259,51,PrescreenTrials
607affb9d112a7e23c03a96d,Group_FJ,0,52a990b3122680c5997bd313b7d6c0868bc4bd61a8a5bd9b06d3983cdcabd842,2825.66326212883,False,keypress,prescreenRsp_fadfat,930,[],choice-response,Fat,618f9adba4bd53a30fa816db,Fat,1847,52,PrescreenTrials
607affb9d112a7e23c03a96d,Group_FJ,0,52a990b3122680c5997bd313b7d6c0868bc4bd61a8a5bd9b06d3983cdcabd842,2825.66326212883,False,keypress,prescreenRsp_bagback,901,[],choice-response,Bag,618f9adba4bd53a30fa816db,Bag,1842,53,PrescreenTrials
607affb9d112a7e23c03a96d,Group_FJ,0,52a990b3122680c5997bd313b7d6c0868bc4bd61a8a5bd9b06d3983cdcabd842,2825.66326212883,False,keypress,prescreenRsp_beadbeat,891,[],choice-response,Beat,618f9adba4bd53a30fa816db,Beat,1971,54,PrescreenTrials
607affb9d112a7e23c03a96d,Group_FJ,0,52a990b3122680c5997bd313b7d6c0868bc4bd61a8a5bd9b06d3983cdcabd842,2825.66326212883,False,keypress,prescreenRsp_laglack,772,[],choice-response,Lag,618f9adba4bd53a30fa816db,Lag,1978,55,PrescreenTrials
607affb9d112a7e23c03a96d,Group_FJ,0,52a990b3122680c5997bd313b7d6c0868bc4bd61a8a5bd9b06d3983cdcabd842,2825.66326212883,False,keypress,prescreenRsp_beadbeat,1184,[],choice-response,Bead,618f9adba4bd53a30fa816db,Bead,2375,56,PrescreenTrials
607affb9d112a7e23c03a96d,Group_FJ,0,52a990b3122680c5997bd313b7d6c0868bc4bd61a8a5bd9b06d3983cdcabd842,2825.66326212883,False,keypress,prescreenRsp_cabcap,1008,[],choice-response,Cab,618f9adba4bd53a30fa816db,Cab,2141,57,PrescreenTrials
607affb9d112a7e23c03a96d,Group_FJ,0,52a990b3122680c5997bd313b7d6c0868bc4bd61a8a5bd9b06d3983cdcabd842,2825.66326212883,False,keypress,prescreenRsp_bagback,1077,[],choice-response,Back,618f9adba4bd53a30fa816db,Back,2299,58,PrescreenTrials
607affb9d112a7e23c03a96d,Group_FJ,0,52a990b3122680c5997bd313b7d6c0868bc4bd61a8a5bd9b06d3983cdcabd842,2825.66326212883,False,keypress,prescreenRsp_cabcap,783,[],choice-response,Cap,618f9adba4bd53a30fa816db,Cap,1789,59,PrescreenTrials
607affb9d112a7e23c03a96d,Group_FJ,0,52a990b3122680c5997bd313b7d6c0868bc4bd61a8a5bd9b06d3983cdcabd842,2825.66326212883,False,keypress,prescreenRsp_laglack,1285,[],choice-response,Lack,618f9adba4bd53a30fa816db,Lack,2362,60,PrescreenTrials
607affb9d112a7e23c03a96d,Group_FJ,0,52a990b3122680c5997bd313b7d6c0868bc4bd61a8a5bd9b06d3983cdcabd842,2825.66326212883,False,keypress,prescreenRsp_lablap,1808,[],choice-response,Lab,618f9adba4bd53a30fa816db,Lap,2786,61,PrescreenTrials
607affb9d112a7e23c03a96d,Group_FJ,0,52a990b3122680c5997bd313b7d6c0868bc4bd61a8a5bd9b06d3983cdcabd842,2825.66326212883,False,keypress,prescreenRsp_fadfat,1063,[],choice-response,Fad,618f9adba4bd53a30fa816db,Fad,2462,62,PrescreenTrials
607affb9d112a7e23c03a96d,Group_FJ,0,52a990b3122680c5997bd313b7d6c0868bc4bd61a8a5bd9b06d3983cdcabd842,2825.66326212883,False,keypress,prescreenRsp_lablap,1135,[],choice-response,Lab,618f9adba4bd53a30fa816db,Lab,2318,63,PrescreenTrials
607affb9d112a7e23c03a96d,Group_FJ,0,52a990b3122680c5997bd313b7d6c0868bc4bd61a8a5bd9b06d3983cdcabd842,2825.66326212883,False,keypress,prescreenRsp_beadbeat,1068,[],choice-response,Beat,618f9adba4bd53a30fa816db,Beat,1797,64,PrescreenTrials
607affb9d112a7e23c03a96d,Group_FJ,0,52a990b3122680c5997bd313b7d6c0868bc4bd61a8a5bd9b06d3983cdcabd842,2825.66326212883,False,keypress,prescreenRsp_fadfat,607,[],choice-response,Fat,618f9adba4bd53a30fa816db,Fat,1782,65,PrescreenTrials
607affb9d112a7e23c03a96d,Group_FJ,0,52a990b3122680c5997bd313b7d6c0868bc4bd61a8a5bd9b06d3983cdcabd842,2825.66326212883,False,keypress,prescreenRsp_fadfat,598,[],choice-response,Fad,618f9adba4bd53a30fa816db,Fad,1700,66,PrescreenTrials
607affb9d112a7e23c03a96d,Group_FJ,0,52a990b3122680c5997bd313b7d6c0868bc4bd61a8a5bd9b06d3983cdcabd842,2825.66326212883,False,keypress,prescreenRsp_cabcap,694,[],choice-response,Cap,618f9adba4bd53a30fa816db,Cap,1342,67,PrescreenTrials
607affb9d112a7e23c03a96d,Group_FJ,0,52a990b3122680c5997bd313b7d6c0868bc4bd61a8a5bd9b06d3983cdcabd842,2825.66326212883,False,keypress,prescreenRsp_cabcap,824,[],choice-response,Cab,618f9adba4bd53a30fa816db,Cab,1743,68,PrescreenTrials
607affb9d112a7e23c03a96d,Group_FJ,0,52a990b3122680c5997bd313b7d6c0868bc4bd61a8a5bd9b06d3983cdcabd842,2825.66326212883,False,keypress,prescreenRsp_laglack,1133,[],choice-response,Lack,618f9adba4bd53a30fa816db,Lack,2109,69,PrescreenTrials
607affb9d112a7e23c03a96d,Group_FJ,0,52a990b3122680c5997bd313b7d6c0868bc4bd61a8a5bd9b06d3983cdcabd842,2825.66326212883,False,keypress,prescreenRsp_lablap,1164,[],choice-response,Lab,618f9adba4bd53a30fa816db,Lap,2193,70,PrescreenTrials
607affb9d112a7e23c03a96d,Group_FJ,0,52a990b3122680c5997bd313b7d6c0868bc4bd61a8a5bd9b06d3983cdcabd842,2825.66326212883,False,keypress,prescreenRsp_bagback,1120,[],choice-response,Bag,618f9adba4bd53a30fa816db,Back,2140,71,PrescreenTrials
607affb9d112a7e23c03a96d,Group_FJ,0,52a990b3122680c5997bd313b7d6c0868bc4bd61a8a5bd9b06d3983cdcabd842,2825.66326212883,False,keypress,prescreenRsp_laglack,803,[],choice-response,Lag,618f9adba4bd53a30fa816db,Lag,2111,72,PrescreenTrials
607affb9d112a7e23c03a96d,Group_FJ,0,52a990b3122680c5997bd313b7d6c0868bc4bd61a8a5bd9b06d3983cdcabd842,2825.66326212883,False,keypress,prescreenRsp_beadbeat,1167,[],choice-response,Bead,618f9adba4bd53a30fa816db,Bead,2449,73,PrescreenTrials
607affb9d112a7e23c03a96d,Group_FJ,0,52a990b3122680c5997bd313b7d6c0868bc4bd61a8a5bd9b06d3983cdcabd842,2825.66326212883,False,keypress,prescreenRsp_bagback,926,[],choice-response,Bag,618f9adba4bd53a30fa816db,Bag,2120,74,PrescreenTrials
607affb9d112a7e23c03a96d,Group_FJ,0,52a990b3122680c5997bd313b7d6c0868bc4bd61a8a5bd9b06d3983cdcabd842,2825.66326212883,False,keypress,prescreenRsp_lablap,1004,[],choice-response,Lab,618f9adba4bd53a30fa816db,Lab,2218,75,PrescreenTrials
607affb9d112a7e23c03a96d,Group_FJ,0,52a990b3122680c5997bd313b7d6c0868bc4bd61a8a5bd9b06d3983cdcabd842,2825.66326212883,False,keypress,prescreenRsp_bagback,920,[],choice-response,Bag,618f9adba4bd53a30fa816db,Back,1593,76,PrescreenTrials
607affb9d112a7e23c03a96d,Group_FJ,0,52a990b3122680c5997bd313b7d6c0868bc4bd61a8a5bd9b06d3983cdcabd842,2825.66326212883,False,keypress,prescreenRsp_laglack,756,[],choice-response,Lag,618f9adba4bd53a30fa816db,Lag,1671,77,PrescreenTrials
607affb9d112a7e23c03a96d,Group_FJ,0,52a990b3122680c5997bd313b7d6c0868bc4bd61a8a5bd9b06d3983cdcabd842,2825.66326212883,False,keypress,prescreenRsp_cabcap,573,[],choice-response,Cap,618f9adba4bd53a30fa816db,Cap,1594,78,PrescreenTrials
607affb9d112a7e23c03a96d,Group_FJ,0,52a990b3122680c5997bd313b7d6c0868bc4bd61a8a5bd9b06d3983cdcabd842,2825.66326212883,False,keypress,prescreenRsp_beadbeat,787,[],choice-response,Beat,618f9adba4bd53a30fa816db,Beat,1814,79,PrescreenTrials
607affb9d112a7e23c03a96d,Group_FJ,0,52a990b3122680c5997bd313b7d6c0868bc4bd61a8a5bd9b06d3983cdcabd842,2825.66326212883,False,keypress,prescreenRsp_lablap,1136,[],choice-response,Lab,618f9adba4bd53a30fa816db,Lab,1991,80,PrescreenTrials
607affb9d112a7e23c03a96d,Group_FJ,0,52a990b3122680c5997bd313b7d6c0868bc4bd61a8a5bd9b06d3983cdcabd842,2825.66326212883,False,keypress,prescreenRsp_fadfat,1171,[],choice-response,Fad,618f9adba4bd53a30fa816db,Fad,2548,81,PrescreenTrials
607affb9d112a7e23c03a96d,Group_FJ,0,52a990b3122680c5997bd313b7d6c0868bc4bd61a8a5bd9b06d3983cdcabd842,2825.66326212883,False,keypress,prescreenRsp_beadbeat,1611,[],choice-response,Bead,618f9adba4bd53a30fa816db,Bead,2553,82,PrescreenTrials
607affb9d112a7e23c03a96d,Group_FJ,0,52a990b3122680c5997bd313b7d6c0868bc4bd61a8a5bd9b06d3983cdcabd842,2825.66326212883,False,keypress,prescreenRsp_lablap,804,[],choice-response,Lap,618f9adba4bd53a30fa816db,Lap,1498,83,PrescreenTrials
607affb9d112a7e23c03a96d,Group_FJ,0,52a990b3122680c5997bd313b7d6c0868bc4bd61a8a5bd9b06d3983cdcabd842,2825.66326212883,False,keypress,prescreenRsp_laglack,681,[],choice-response,Lack,618f9adba4bd53a30fa816db,Lack,1661,84,PrescreenTrials
607affb9d112a7e23c03a96d,Group_FJ,0,52a990b3122680c5997bd313b7d6c0868bc4bd61a8a5bd9b06d3983cdcabd842,2825.66326212883,False,keypress,prescreenRsp_bagback,827,[],choice-response,Bag,618f9adba4bd53a30fa816db,Bag,2067,85,PrescreenTrials
607affb9d112a7e23c03a96d,Group_FJ,0,52a990b3122680c5997bd313b7d6c0868bc4bd61a8a5bd9b06d3983cdcabd842,2825.66326212883,False,keypress,prescreenRsp_cabcap,1223,[],choice-response,Cab,618f9adba4bd53a30fa816db,Cab,2501,86,PrescreenTrials
607affb9d112a7e23c03a96d,Group_FJ,0,52a990b3122680c5997bd313b7d6c0868bc4bd61a8a5bd9b06d3983cdcabd842,2825.66326212883,False,keypress,prescreenRsp_fadfat,2361,[],choice-response,Fat,618f9adba4bd53a30fa816db,Fat,3462,87,PrescreenTrials
607affb9d112a7e23c03a96d,Group_FJ,0,52a990b3122680c5997bd313b7d6c0868bc4bd61a8a5bd9b06d3983cdcabd842,2825.66326212883,False,keypress,prescreenRsp_beadbeat,1730,[],choice-response,Bead,618f9adba4bd53a30fa816db,Bead,2996,88,PrescreenTrials
607affb9d112a7e23c03a96d,Group_FJ,0,52a990b3122680c5997bd313b7d6c0868bc4bd61a8a5bd9b06d3983cdcabd842,2825.66326212883,False,keypress,prescreenRsp_bagback,1149,[],choice-response,Bag,618f9adba4bd53a30fa816db,Back,2058,89,PrescreenTrials
607affb9d112a7e23c03a96d,Group_FJ,0,52a990b3122680c5997bd313b7d6c0868bc4bd61a8a5bd9b06d3983cdcabd842,2825.66326212883,False,keypress,prescreenRsp_cabcap,904,[],choice-response,Cap,618f9adba4bd53a30fa816db,Cap,1917,90,PrescreenTrials
607affb9d112a7e23c03a96d,Group_FJ,0,52a990b3122680c5997bd313b7d6c0868bc4bd61a8a5bd9b06d3983cdcabd842,2825.66326212883,False,keypress,prescreenRsp_fadfat,937,[],choice-response,Fad,618f9adba4bd53a30fa816db,Fad,2439,91,PrescreenTrials
607affb9d112a7e23c03a96d,Group_FJ,0,52a990b3122680c5997bd313b7d6c0868bc4bd61a8a5bd9b06d3983cdcabd842,2825.66326212883,False,keypress,prescreenRsp_bagback,942,[],choice-response,Bag,618f9adba4bd53a30fa816db,Bag,1890,92,PrescreenTrials
607affb9d112a7e23c03a96d,Group_FJ,0,52a990b3122680c5997bd313b7d6c0868bc4bd61a8a5bd9b06d3983cdcabd842,2825.66326212883,False,keypress,prescreenRsp_lablap,713,[],choice-response,Lap,618f9adba4bd53a30fa816db,Lap,1429,93,PrescreenTrials
607affb9d112a7e23c03a96d,Group_FJ,0,52a990b3122680c5997bd313b7d6c0868bc4bd61a8a5bd9b06d3983cdcabd842,2825.66326212883,False,keypress,prescreenRsp_fadfat,808,[],choice-response,Fat,618f9adba4bd53a30fa816db,Fat,1667,94,PrescreenTrials
607affb9d112a7e23c03a96d,Group_FJ,0,52a990b3122680c5997bd313b7d6c0868bc4bd61a8a5bd9b06d3983cdcabd842,2825.66326212883,False,keypress,prescreenRsp_beadbeat,1187,[],choice-response,Bead,618f9adba4bd53a30fa816db,Beat,2242,95,PrescreenTrials
607affb9d112a7e23c03a96d,Group_FJ,0,52a990b3122680c5997bd313b7d6c0868bc4bd61a8a5bd9b06d3983cdcabd842,2825.66326212883,False,keypress,prescreenRsp_lablap,906,[],choice-response,Lab,618f9adba4bd53a30fa816db,Lab,2163,96,PrescreenTrials
607affb9d112a7e23c03a96d,Group_FJ,0,52a990b3122680c5997bd313b7d6c0868bc4bd61a8a5bd9b06d3983cdcabd842,2825.66326212883,False,keypress,prescreenRsp_laglack,932,[],choice-response,Lag,618f9adba4bd53a30fa816db,Lag,2243,97,PrescreenTrials
607affb9d112a7e23c03a96d,Group_FJ,0,52a990b3122680c5997bd313b7d6c0868bc4bd61a8a5bd9b06d3983cdcabd842,2825.66326212883,False,keypress,prescreenRsp_laglack,608,[],choice-response,Lack,618f9adba4bd53a30fa816db,Lack,1661,98,PrescreenTrials
607affb9d112a7e23c03a96d,Group_FJ,0,52a990b3122680c5997bd313b7d6c0868bc4bd61a8a5bd9b06d3983cdcabd842,2825.66326212883,False,keypress,prescreenRsp_cabcap,1580,[],choice-response,Cab,618f9adba4bd53a30fa816db,Cab,2844,99,PrescreenTrials
607affb9d112a7e23c03a96d,Group_FJ,0,52a990b3122680c5997bd313b7d6c0868bc4bd61a8a5bd9b06d3983cdcabd842,2825.66326212883,False,keypress,prescreenRsp_lablap,2576,[],choice-response,Lab,618f9adba4bd53a30fa816db,Lap,3599,100,PrescreenTrials
607affb9d112a7e23c03a96d,Group_FJ,0,52a990b3122680c5997bd313b7d6c0868bc4bd61a8a5bd9b06d3983cdcabd842,2825.66326212883,False,keypress,prescreenRsp_cabcap,1322,[],choice-response,Cab,618f9adba4bd53a30fa816db,Cab,2266,101,PrescreenTrials
607affb9d112a7e23c03a96d,Group_FJ,0,52a990b3122680c5997bd313b7d6c0868bc4bd61a8a5bd9b06d3983cdcabd842,2825.66326212883,False,keypress,prescreenRsp_fadfat,909,[],choice-response,Fad,618f9adba4bd53a30fa816db,Fad,2397,102,PrescreenTrials
607affb9d112a7e23c03a96d,Group_FJ,0,52a990b3122680c5997bd313b7d6c0868bc4bd61a8a5bd9b06d3983cdcabd842,2825.66326212883,False,keypress,prescreenRsp_beadbeat,2094,[],choice-response,Bead,618f9adba4bd53a30fa816db,Bead,3300,103,PrescreenTrials
607affb9d112a7e23c03a96d,Group_FJ,0,52a990b3122680c5997bd313b7d6c0868bc4bd61a8a5bd9b06d3983cdcabd842,2825.66326212883,False,keypress,prescreenRsp_bagback,973,[],choice-response,Back,618f9adba4bd53a30fa816db,Back,1941,104,PrescreenTrials
607affb9d112a7e23c03a96d,Group_FJ,0,52a990b3122680c5997bd313b7d6c0868bc4bd61a8a5bd9b06d3983cdcabd842,2825.66326212883,False,keypress,prescreenRsp_lablap,2734,[],choice-response,Lab,618f9adba4bd53a30fa816db,Lab,3591,105,PrescreenTrials
607affb9d112a7e23c03a96d,Group_FJ,0,52a990b3122680c5997bd313b7d6c0868bc4bd61a8a5bd9b06d3983cdcabd842,2825.66326212883,False,keypress,prescreenRsp_cabcap,1021,[],choice-response,Cap,618f9adba4bd53a30fa816db,Cap,2011,106,PrescreenTrials
607affb9d112a7e23c03a96d,Group_FJ,0,52a990b3122680c5997bd313b7d6c0868bc4bd61a8a5bd9b06d3983cdcabd842,2825.66326212883,False,keypress,prescreenRsp_bagback,1252,[],choice-response,Bag,618f9adba4bd53a30fa816db,Bag,2411,107,PrescreenTrials
607affb9d112a7e23c03a96d,Group_FJ,0,52a990b3122680c5997bd313b7d6c0868bc4bd61a8a5bd9b06d3983cdcabd842,2825.66326212883,False,keypress,prescreenRsp_beadbeat,918,[],choice-response,Beat,618f9adba4bd53a30fa816db,Beat,1910,108,PrescreenTrials
607affb9d112a7e23c03a96d,Group_FJ,0,52a990b3122680c5997bd313b7d6c0868bc4bd61a8a5bd9b06d3983cdcabd842,2825.66326212883,False,keypress,prescreenRsp_laglack,1219,[],choice-response,Lag,618f9adba4bd53a30fa816db,Lag,2471,109,PrescreenTrials
607affb9d112a7e23c03a96d,Group_FJ,0,52a990b3122680c5997bd313b7d6c0868bc4bd61a8a5bd9b06d3983cdcabd842,2825.66326212883,False,keypress,prescreenRsp_laglack,833,[],choice-response,Lack,618f9adba4bd53a30fa816db,Lack,1908,110,PrescreenTrials
607affb9d112a7e23c03a96d,Group_FJ,0,52a990b3122680c5997bd313b7d6c0868bc4bd61a8a5bd9b06d3983cdcabd842,2825.66326212883,False,keypress,prescreenRsp_fadfat,824,[],choice-response,Fat,618f9adba4bd53a30fa816db,Fat,2181,111,PrescreenTrials
607affb9d112a7e23c03a96d,Group_FJ,0,52a990b3122680c5997bd313b7d6c0868bc4bd61a8a5bd9b06d3983cdcabd842,2825.66326212883,False,keypress,prescreenRsp_beadbeat,1537,[],choice-response,Bead,618f9adba4bd53a30fa816db,Bead,2830,112,PrescreenTrials
607affb9d112a7e23c03a96d,Group_FJ,0,52a990b3122680c5997bd313b7d6c0868bc4bd61a8a5bd9b06d3983cdcabd842,2825.66326212883,False,keypress,prescreenRsp_cabcap,674,[],choice-response,Cap,618f9adba4bd53a30fa816db,Cap,1815,113,PrescreenTrials
607affb9d112a7e23c03a96d,Group_FJ,0,52a990b3122680c5997bd313b7d6c0868bc4bd61a8a5bd9b06d3983cdcabd842,2825.66326212883,False,keypress,prescreenRsp_bagback,2040,[],choice-response,Back,618f9adba4bd53a30fa816db,Back,2970,114,PrescreenTrials
607affb9d112a7e23c03a96d,Group_FJ,0,52a990b3122680c5997bd313b7d6c0868bc4bd61a8a5bd9b06d3983cdcabd842,2825.66326212883,False,keypress,prescreenRsp_laglack,688,[],choice-response,Lack,618f9adba4bd53a30fa816db,Lack,1460,115,PrescreenTrials
607affb9d112a7e23c03a96d,Group_FJ,0,52a990b3122680c5997bd313b7d6c0868bc4bd61a8a5bd9b06d3983cdcabd842,2825.66326212883,False,keypress,prescreenRsp_bagback,677,[],choice-response,Bag,618f9adba4bd53a30fa816db,Bag,1901,116,PrescreenTrials
607affb9d112a7e23c03a96d,Group_FJ,0,52a990b3122680c5997bd313b7d6c0868bc4bd61a8a5bd9b06d3983cdcabd842,2825.66326212883,False,keypress,prescreenRsp_beadbeat,1155,[],choice-response,Bead,618f9adba4bd53a30fa816db,Beat,1846,117,PrescreenTrials
607affb9d112a7e23c03a96d,Group_FJ,0,52a990b3122680c5997bd313b7d6c0868bc4bd61a8a5bd9b06d3983cdcabd842,2825.66326212883,False,keypress,prescreenRsp_fadfat,663,[],choice-response,Fad,618f9adba4bd53a30fa816db,Fad,1986,118,PrescreenTrials
607affb9d112a7e23c03a96d,Group_FJ,0,52a990b3122680c5997bd313b7d6c0868bc4bd61a8a5bd9b06d3983cdcabd842,2825.66326212883,False,keypress,prescreenRsp_laglack,855,[],choice-response,Lag,618f9adba4bd53a30fa816db,Lag,1731,119,PrescreenTrials
607affb9d112a7e23c03a96d,Group_FJ,0,52a990b3122680c5997bd313b7d6c0868bc4bd61a8a5bd9b06d3983cdcabd842,2825.66326212883,False,keypress,prescreenRsp_lablap,784,[],choice-response,Lab,618f9adba4bd53a30fa816db,Lab,2037,120,PrescreenTrials
607affb9d112a7e23c03a96d,Group_FJ,0,52a990b3122680c5997bd313b7d6c0868bc4bd61a8a5bd9b06d3983cdcabd842,2825.66326212883,False,keypress,prescreenRsp_lablap,751,[],choice-response,Lap,618f9adba4bd53a30fa816db,Lap,1790,121,PrescreenTrials
607affb9d112a7e23c03a96d,Group_FJ,0,52a990b3122680c5997bd313b7d6c0868bc4bd61a8a5bd9b06d3983cdcabd842,2825.66326212883,False,keypress,prescreenRsp_cabcap,1192,[],choice-response,Cab,618f9adba4bd53a30fa816db,Cab,2412,122,PrescreenTrials
607affb9d112a7e23c03a96d,Group_FJ,0,52a990b3122680c5997bd313b7d6c0868bc4bd61a8a5bd9b06d3983cdcabd842,2825.66326212883,False,keypress,prescreenRsp_fadfat,569,[],choice-response,Fat,618f9adba4bd53a30fa816db,Fat,1491,123,PrescreenTrials
607affb9d112a7e23c03a96d,Group_FJ,0,52a990b3122680c5997bd313b7d6c0868bc4bd61a8a5bd9b06d3983cdcabd842,2825.66326212883,False,keypress,testRsp,2377,[],choice-response,Lab,618f9adba4bd53a30fa816db,Lab6,3795,124,DiscriminationTrials
607affb9d112a7e23c03a96d,Group_FJ,0,52a990b3122680c5997bd313b7d6c0868bc4bd61a8a5bd9b06d3983cdcabd842,2825.66326212883,False,keypress,testRsp,817,[],choice-response,Lab,618f9adba4bd53a30fa816db,Lab8,2194,125,DiscriminationTrials
607affb9d112a7e23c03a96d,Group_FJ,0,52a990b3122680c5997bd313b7d6c0868bc4bd61a8a5bd9b06d3983cdcabd842,2825.66326212883,False,keypress,testRsp,946,[],choice-response,Lab,618f9adba4bd53a30fa816db,Lab5,2021,126,DiscriminationTrials
607affb9d112a7e23c03a96d,Group_FJ,0,52a990b3122680c5997bd313b7d6c0868bc4bd61a8a5bd9b06d3983cdcabd842,2825.66326212883,False,keypress,testRsp,745,[],choice-response,Lap,618f9adba4bd53a30fa816db,Lab3,1841,127,DiscriminationTrials
607affb9d112a7e23c03a96d,Group_FJ,0,52a990b3122680c5997bd313b7d6c0868bc4bd61a8a5bd9b06d3983cdcabd842,2825.66326212883,False,keypress,testRsp,913,[],choice-response,Lap,618f9adba4bd53a30fa816db,Lab4,2001,128,DiscriminationTrials
607affb9d112a7e23c03a96d,Group_FJ,0,52a990b3122680c5997bd313b7d6c0868bc4bd61a8a5bd9b06d3983cdcabd842,2825.66326212883,False,keypress,testRsp,447,[],choice-response,Lap,618f9adba4bd53a30fa816db,Lab1,1477,129,DiscriminationTrials
607affb9d112a7e23c03a96d,Group_FJ,0,52a990b3122680c5997bd313b7d6c0868bc4bd61a8a5bd9b06d3983cdcabd842,2825.66326212883,False,keypress,testRsp,389,[],choice-response,Lab,618f9adba4bd53a30fa816db,Lab7,1559,130,DiscriminationTrials
607affb9d112a7e23c03a96d,Group_FJ,0,52a990b3122680c5997bd313b7d6c0868bc4bd61a8a5bd9b06d3983cdcabd842,2825.66326212883,False,keypress,testRsp,494,[],choice-response,Lap,618f9adba4bd53a30fa816db,Lab2,1557,131,DiscriminationTrials
607affb9d112a7e23c03a96d,Group_FJ,0,52a990b3122680c5997bd313b7d6c0868bc4bd61a8a5bd9b06d3983cdcabd842,2825.66326212883,False,keypress,testRsp,780,[],choice-response,Lab,618f9adba4bd53a30fa816db,Lab7,1551,132,DiscriminationTrials
607affb9d112a7e23c03a96d,Group_FJ,0,52a990b3122680c5997bd313b7d6c0868bc4bd61a8a5bd9b06d3983cdcabd842,2825.66326212883,False,keypress,testRsp,937,[],choice-response,Lab,618f9adba4bd53a30fa816db,Lab6,1722,133,DiscriminationTrials
607affb9d112a7e23c03a96d,Group_FJ,0,52a990b3122680c5997bd313b7d6c0868bc4bd61a8a5bd9b06d3983cdcabd842,2825.66326212883,False,keypress,testRsp,1046,[],choice-response,Lab,618f9adba4bd53a30fa816db,Lab8,1968,134,DiscriminationTrials
607affb9d112a7e23c03a96d,Group_FJ,0,52a990b3122680c5997bd313b7d6c0868bc4bd61a8a5bd9b06d3983cdcabd842,2825.66326212883,False,keypress,testRsp,544,[],choice-response,Lap,618f9adba4bd53a30fa816db,Lab3,1345,135,DiscriminationTrials
607affb9d112a7e23c03a96d,Group_FJ,0,52a990b3122680c5997bd313b7d6c0868bc4bd61a8a5bd9b06d3983cdcabd842,2825.66326212883,False,keypress,testRsp,351,[],choice-response,Lap,618f9adba4bd53a30fa816db,Lab4,1087,136,DiscriminationTrials
607affb9d112a7e23c03a96d,Group_FJ,0,52a990b3122680c5997bd313b7d6c0868bc4bd61a8a5bd9b06d3983cdcabd842,2825.66326212883,False,keypress,testRsp,252,[],choice-response,Lap,618f9adba4bd53a30fa816db,Lab1,918,137,DiscriminationTrials
607affb9d112a7e23c03a96d,Group_FJ,0,52a990b3122680c5997bd313b7d6c0868bc4bd61a8a5bd9b06d3983cdcabd842,2825.66326212883,False,keypress,testRsp,250,[],choice-response,Lap,618f9adba4bd53a30fa816db,Lab2,937,138,DiscriminationTrials
607affb9d112a7e23c03a96d,Group_FJ,0,52a990b3122680c5997bd313b7d6c0868bc4bd61a8a5bd9b06d3983cdcabd842,2825.66326212883,False,keypress,testRsp,296,[],choice-response,Lab,618f9adba4bd53a30fa816db,Lab5,1249,139,DiscriminationTrials
607affb9d112a7e23c03a96d,Group_FJ,0,52a990b3122680c5997bd313b7d6c0868bc4bd61a8a5bd9b06d3983cdcabd842,2825.66326212883,False,keypress,testRsp,794,[],choice-response,Lab,618f9adba4bd53a30fa816db,Lab3,1731,140,DiscriminationTrials
607affb9d112a7e23c03a96d,Group_FJ,0,52a990b3122680c5997bd313b7d6c0868bc4bd61a8a5bd9b06d3983cdcabd842,2825.66326212883,False,keypress,testRsp,870,[],choice-response,Lab,618f9adba4bd53a30fa816db,Lab5,1656,141,DiscriminationTrials
607affb9d112a7e23c03a96d,Group_FJ,0,52a990b3122680c5997bd313b7d6c0868bc4bd61a8a5bd9b06d3983cdcabd842,2825.66326212883,False,keypress,testRsp,481,[],choice-response,Lab,618f9adba4bd53a30fa816db,Lab6,1308,142,DiscriminationTrials
607affb9d112a7e23c03a96d,Group_FJ,0,52a990b3122680c5997bd313b7d6c0868bc4bd61a8a5bd9b06d3983cdcabd842,2825.66326212883,False,keypress,testRsp,606,[],choice-response,Lap,618f9adba4bd53a30fa816db,Lab1,1397,143,DiscriminationTrials
607affb9d112a7e23c03a96d,Group_FJ,0,52a990b3122680c5997bd313b7d6c0868bc4bd61a8a5bd9b06d3983cdcabd842,2825.66326212883,False,keypress,testRsp,999,[],choice-response,Lap,618f9adba4bd53a30fa816db,Lab2,2104,144,DiscriminationTrials
607affb9d112a7e23c03a96d,Group_FJ,0,52a990b3122680c5997bd313b7d6c0868bc4bd61a8a5bd9b06d3983cdcabd842,2825.66326212883,False,keypress,testRsp,330,[],choice-response,Lab,618f9adba4bd53a30fa816db,Lab7,1486,145,DiscriminationTrials
607affb9d112a7e23c03a96d,Group_FJ,0,52a990b3122680c5997bd313b7d6c0868bc4bd61a8a5bd9b06d3983cdcabd842,2825.66326212883,False,keypress,testRsp,496,[],choice-response,Lab,618f9adba4bd53a30fa816db,Lab4,1534,146,DiscriminationTrials
607affb9d112a7e23c03a96d,Group_FJ,0,52a990b3122680c5997bd313b7d6c0868bc4bd61a8a5bd9b06d3983cdcabd842,2825.66326212883,False,keypress,testRsp,936,[],choice-response,Lab,618f9adba4bd53a30fa816db,Lab8,2236,147,DiscriminationTrials
607affb9d112a7e23c03a96d,Group_FJ,0,52a990b3122680c5997bd313b7d6c0868bc4bd61a8a5bd9b06d3983cdcabd842,2825.66326212883,False,keypress,testRsp,420,[],choice-response,Lab,618f9adba4bd53a30fa816db,Lab6,1769,148,DiscriminationTrials
607affb9d112a7e23c03a96d,Group_FJ,0,52a990b3122680c5997bd313b7d6c0868bc4bd61a8a5bd9b06d3983cdcabd842,2825.66326212883,False,keypress,testRsp,489,[],choice-response,Lap,618f9adba4bd53a30fa816db,Lab1,1183,149,DiscriminationTrials
607affb9d112a7e23c03a96d,Group_FJ,0,52a990b3122680c5997bd313b7d6c0868bc4bd61a8a5bd9b06d3983cdcabd842,2825.66326212883,False,keypress,testRsp,394,[],choice-response,Lab,618f9adba4bd53a30fa816db,Lab7,1182,150,DiscriminationTrials
607affb9d112a7e23c03a96d,Group_FJ,0,52a990b3122680c5997bd313b7d6c0868bc4bd61a8a5bd9b06d3983cdcabd842,2825.66326212883,False,keypress,testRsp,883,[],choice-response,Lab,618f9adba4bd53a30fa816db,Lab5,1929,151,DiscriminationTrials
607affb9d112a7e23c03a96d,Group_FJ,0,52a990b3122680c5997bd313b7d6c0868bc4bd61a8a5bd9b06d3983cdcabd842,2825.66326212883,False,keypress,testRsp,922,[],choice-response,Lab,618f9adba4bd53a30fa816db,Lab3,1948,152,DiscriminationTrials
607affb9d112a7e23c03a96d,Group_FJ,0,52a990b3122680c5997bd313b7d6c0868bc4bd61a8a5bd9b06d3983cdcabd842,2825.66326212883,False,keypress,testRsp,337,[],choice-response,Lap,618f9adba4bd53a30fa816db,Lab2,1055,153,DiscriminationTrials
607affb9d112a7e23c03a96d,Group_FJ,0,52a990b3122680c5997bd313b7d6c0868bc4bd61a8a5bd9b06d3983cdcabd842,2825.66326212883,False,keypress,testRsp,541,[],choice-response,Lap,618f9adba4bd53a30fa816db,Lab4,1295,154,DiscriminationTrials
607affb9d112a7e23c03a96d,Group_FJ,0,52a990b3122680c5997bd313b7d6c0868bc4bd61a8a5bd9b06d3983cdcabd842,2825.66326212883,False,keypress,testRsp,384,[],choice-response,Lab,618f9adba4bd53a30fa816db,Lab8,1200,155,DiscriminationTrials
607affb9d112a7e23c03a96d,Group_FJ,0,52a990b3122680c5997bd313b7d6c0868bc4bd61a8a5bd9b06d3983cdcabd842,2825.66326212883,False,keypress,testRsp,366,[],choice-response,Lap,618f9adba4bd53a30fa816db,Lab3,1082,156,DiscriminationTrials
607affb9d112a7e23c03a96d,Group_FJ,0,52a990b3122680c5997bd313b7d6c0868bc4bd61a8a5bd9b06d3983cdcabd842,2825.66326212883,False,keypress,testRsp,331,[],choice-response,Lap,618f9adba4bd53a30fa816db,Lab1,998,157,DiscriminationTrials
607affb9d112a7e23c03a96d,Group_FJ,0,52a990b3122680c5997bd313b7d6c0868bc4bd61a8a5bd9b06d3983cdcabd842,2825.66326212883,False,keypress,testRsp,304,[],choice-response,Lab,618f9adba4bd53a30fa816db,Lab7,1071,158,DiscriminationTrials
607affb9d112a7e23c03a96d,Group_FJ,0,52a990b3122680c5997bd313b7d6c0868bc4bd61a8a5bd9b06d3983cdcabd842,2825.66326212883,False,keypress,testRsp,421,[],choice-response,Lab,618f9adba4bd53a30fa816db,Lab6,1280,159,DiscriminationTrials
607affb9d112a7e23c03a96d,Group_FJ,0,52a990b3122680c5997bd313b7d6c0868bc4bd61a8a5bd9b06d3983cdcabd842,2825.66326212883,False,keypress,testRsp,303,[],choice-response,Lab,618f9adba4bd53a30fa816db,Lab8,1115,160,DiscriminationTrials
607affb9d112a7e23c03a96d,Group_FJ,0,52a990b3122680c5997bd313b7d6c0868bc4bd61a8a5bd9b06d3983cdcabd842,2825.66326212883,False,keypress,testRsp,375,[],choice-response,Lap,618f9adba4bd53a30fa816db,Lab2,1234,161,DiscriminationTrials
607affb9d112a7e23c03a96d,Group_FJ,0,52a990b3122680c5997bd313b7d6c0868bc4bd61a8a5bd9b06d3983cdcabd842,2825.66326212883,False,keypress,testRsp,534,[],choice-response,Lap,618f9adba4bd53a30fa816db,Lab5,1279,162,DiscriminationTrials
607affb9d112a7e23c03a96d,Group_FJ,0,52a990b3122680c5997bd313b7d6c0868bc4bd61a8a5bd9b06d3983cdcabd842,2825.66326212883,False,keypress,testRsp,693,[],choice-response,Lap,618f9adba4bd53a30fa816db,Lab4,1476,163,DiscriminationTrials
607affb9d112a7e23c03a96d,Group_FJ,0,52a990b3122680c5997bd313b7d6c0868bc4bd61a8a5bd9b06d3983cdcabd842,2825.66326212883,False,keypress,testRsp,463,[],choice-response,Lap,618f9adba4bd53a30fa816db,Lab4,1179,164,DiscriminationTrials
607affb9d112a7e23c03a96d,Group_FJ,0,52a990b3122680c5997bd313b7d6c0868bc4bd61a8a5bd9b06d3983cdcabd842,2825.66326212883,False,keypress,testRsp,362,[],choice-response,Lap,618f9adba4bd53a30fa816db,Lab3,1444,165,DiscriminationTrials
607affb9d112a7e23c03a96d,Group_FJ,0,52a990b3122680c5997bd313b7d6c0868bc4bd61a8a5bd9b06d3983cdcabd842,2825.66326212883,False,keypress,testRsp,475,[],choice-response,Lab,618f9adba4bd53a30fa816db,Lab6,1573,166,DiscriminationTrials
607affb9d112a7e23c03a96d,Group_FJ,0,52a990b3122680c5997bd313b7d6c0868bc4bd61a8a5bd9b06d3983cdcabd842,2825.66326212883,False,keypress,testRsp,838,[],choice-response,Lab,618f9adba4bd53a30fa816db,Lab7,2125,167,DiscriminationTrials
607affb9d112a7e23c03a96d,Group_FJ,0,52a990b3122680c5997bd313b7d6c0868bc4bd61a8a5bd9b06d3983cdcabd842,2825.66326212883,False,keypress,testRsp,1716,[],choice-response,Lab,618f9adba4bd53a30fa816db,Lab5,2859,168,DiscriminationTrials
607affb9d112a7e23c03a96d,Group_FJ,0,52a990b3122680c5997bd313b7d6c0868bc4bd61a8a5bd9b06d3983cdcabd842,2825.66326212883,False,keypress,testRsp,584,[],choice-response,Lab,618f9adba4bd53a30fa816db,Lab8,1873,169,DiscriminationTrials
607affb9d112a7e23c03a96d,Group_FJ,0,52a990b3122680c5997bd313b7d6c0868bc4bd61a8a5bd9b06d3983cdcabd842,2825.66326212883,False,keypress,testRsp,339,[],choice-response,Lap,618f9adba4bd53a30fa816db,Lab1,1400,170,DiscriminationTrials
607affb9d112a7e23c03a96d,Group_FJ,0,52a990b3122680c5997bd313b7d6c0868bc4bd61a8a5bd9b06d3983cdcabd842,2825.66326212883,False,keypress,testRsp,240,[],choice-response,Lap,618f9adba4bd53a30fa816db,Lab2,1365,171,DiscriminationTrials
607affb9d112a7e23c03a96d,Group_FJ,0,52a990b3122680c5997bd313b7d6c0868bc4bd61a8a5bd9b06d3983cdcabd842,2825.66326212883,False,keypress,testRsp,292,[],choice-response,Lab,618f9adba4bd53a30fa816db,Lab7,1304,172,DiscriminationTrials
607affb9d112a7e23c03a96d,Group_FJ,0,52a990b3122680c5997bd313b7d6c0868bc4bd61a8a5bd9b06d3983cdcabd842,2825.66326212883,False,keypress,testRsp,862,[],choice-response,Lap,618f9adba4bd53a30fa816db,Lab2,1749,173,DiscriminationTrials
607affb9d112a7e23c03a96d,Group_FJ,0,52a990b3122680c5997bd313b7d6c0868bc4bd61a8a5bd9b06d3983cdcabd842,2825.66326212883,False,keypress,testRsp,538,[],choice-response,Lab,618f9adba4bd53a30fa816db,Lab1,1211,174,DiscriminationTrials
607affb9d112a7e23c03a96d,Group_FJ,0,52a990b3122680c5997bd313b7d6c0868bc4bd61a8a5bd9b06d3983cdcabd842,2825.66326212883,False,keypress,testRsp,1242,[],choice-response,Lab,618f9adba4bd53a30fa816db,Lab3,2038,175,DiscriminationTrials
607affb9d112a7e23c03a96d,Group_FJ,0,52a990b3122680c5997bd313b7d6c0868bc4bd61a8a5bd9b06d3983cdcabd842,2825.66326212883,False,keypress,testRsp,329,[],choice-response,Lab,618f9adba4bd53a30fa816db,Lab6,1125,176,DiscriminationTrials
607affb9d112a7e23c03a96d,Group_FJ,0,52a990b3122680c5997bd313b7d6c0868bc4bd61a8a5bd9b06d3983cdcabd842,2825.66326212883,False,keypress,testRsp,516,[],choice-response,Lab,618f9adba4bd53a30fa816db,Lab4,1450,177,DiscriminationTrials
607affb9d112a7e23c03a96d,Group_FJ,0,52a990b3122680c5997bd313b7d6c0868bc4bd61a8a5bd9b06d3983cdcabd842,2825.66326212883,False,keypress,testRsp,483,[],choice-response,Lab,618f9adba4bd53a30fa816db,Lab8,1356,178,DiscriminationTrials
607affb9d112a7e23c03a96d,Group_FJ,0,52a990b3122680c5997bd313b7d6c0868bc4bd61a8a5bd9b06d3983cdcabd842,2825.66326212883,False,keypress,testRsp,883,[],choice-response,Lab,618f9adba4bd53a30fa816db,Lab5,1736,179,DiscriminationTrials
607affb9d112a7e23c03a96d,Group_FJ,0,52a990b3122680c5997bd313b7d6c0868bc4bd61a8a5bd9b06d3983cdcabd842,2825.66326212883,False,keypress,testRsp,1503,[],choice-response,Lap,618f9adba4bd53a30fa816db,Lab8,2338,180,DiscriminationTrials
607affb9d112a7e23c03a96d,Group_FJ,0,52a990b3122680c5997bd313b7d6c0868bc4bd61a8a5bd9b06d3983cdcabd842,2825.66326212883,False,keypress,testRsp,1222,[],choice-response,Lap,618f9adba4bd53a30fa816db,Lab5,2008,181,DiscriminationTrials
607affb9d112a7e23c03a96d,Group_FJ,0,52a990b3122680c5997bd313b7d6c0868bc4bd61a8a5bd9b06d3983cdcabd842,2825.66326212883,False,keypress,testRsp,297,[],choice-response,Lap,618f9adba4bd53a30fa816db,Lab2,1306,182,DiscriminationTrials
607affb9d112a7e23c03a96d,Group_FJ,0,52a990b3122680c5997bd313b7d6c0868bc4bd61a8a5bd9b06d3983cdcabd842,2825.66326212883,False,keypress,testRsp,468,[],choice-response,Lap,618f9adba4bd53a30fa816db,Lab4,1756,183,DiscriminationTrials
607affb9d112a7e23c03a96d,Group_FJ,0,52a990b3122680c5997bd313b7d6c0868bc4bd61a8a5bd9b06d3983cdcabd842,2825.66326212883,False,keypress,testRsp,412,[],choice-response,Lab,618f9adba4bd53a30fa816db,Lab7,1569,184,DiscriminationTrials
607affb9d112a7e23c03a96d,Group_FJ,0,52a990b3122680c5997bd313b7d6c0868bc4bd61a8a5bd9b06d3983cdcabd842,2825.66326212883,False,keypress,testRsp,876,[],choice-response,Lap,618f9adba4bd53a30fa816db,Lab3,1938,185,DiscriminationTrials
607affb9d112a7e23c03a96d,Group_FJ,0,52a990b3122680c5997bd313b7d6c0868bc4bd61a8a5bd9b06d3983cdcabd842,2825.66326212883,False,keypress,testRsp,392,[],choice-response,Lap,618f9adba4bd53a30fa816db,Lab1,1395,186,DiscriminationTrials
607affb9d112a7e23c03a96d,Group_FJ,0,52a990b3122680c5997bd313b7d6c0868bc4bd61a8a5bd9b06d3983cdcabd842,2825.66326212883,False,keypress,testRsp,307,[],choice-response,Lab,618f9adba4bd53a30fa816db,Lab6,1659,187,DiscriminationTrials
607affb9d112a7e23c03a96d,Group_FJ,0,52a990b3122680c5997bd313b7d6c0868bc4bd61a8a5bd9b06d3983cdcabd842,2825.66326212883,False,keypress,testRsp,626,[],choice-response,Lab,618f9adba4bd53a30fa816db,Lab4,1518,188,DiscriminationTrials
607affb9d112a7e23c03a96d,Group_FJ,0,52a990b3122680c5997bd313b7d6c0868bc4bd61a8a5bd9b06d3983cdcabd842,2825.66326212883,False,keypress,testRsp,1231,[],choice-response,Lap,618f9adba4bd53a30fa816db,Lab1,1950,189,DiscriminationTrials
607affb9d112a7e23c03a96d,Group_FJ,0,52a990b3122680c5997bd313b7d6c0868bc4bd61a8a5bd9b06d3983cdcabd842,2825.66326212883,False,keypress,testRsp,1770,[],choice-response,Lab,618f9adba4bd53a30fa816db,Lab7,2559,190,DiscriminationTrials
607affb9d112a7e23c03a96d,Group_FJ,0,52a990b3122680c5997bd313b7d6c0868bc4bd61a8a5bd9b06d3983cdcabd842,2825.66326212883,False,keypress,testRsp,980,[],choice-response,Lap,618f9adba4bd53a30fa816db,Lab3,1725,191,DiscriminationTrials
607affb9d112a7e23c03a96d,Group_FJ,0,52a990b3122680c5997bd313b7d6c0868bc4bd61a8a5bd9b06d3983cdcabd842,2825.66326212883,False,keypress,testRsp,293,[],choice-response,Lab,618f9adba4bd53a30fa816db,Lab8,1508,192,DiscriminationTrials
607affb9d112a7e23c03a96d,Group_FJ,0,52a990b3122680c5997bd313b7d6c0868bc4bd61a8a5bd9b06d3983cdcabd842,2825.66326212883,False,keypress,testRsp,467,[],choice-response,Lab,618f9adba4bd53a30fa816db,Lab5,1360,193,DiscriminationTrials
607affb9d112a7e23c03a96d,Group_FJ,0,52a990b3122680c5997bd313b7d6c0868bc4bd61a8a5bd9b06d3983cdcabd842,2825.66326212883,False,keypress,testRsp,329,[],choice-response,Lab,618f9adba4bd53a30fa816db,Lab6,1121,194,DiscriminationTrials
607affb9d112a7e23c03a96d,Group_FJ,0,52a990b3122680c5997bd313b7d6c0868bc4bd61a8a5bd9b06d3983cdcabd842,2825.66326212883,False,keypress,testRsp,356,[],choice-response,Lab,618f9adba4bd53a30fa816db,Lab2,1066,195,DiscriminationTrials
607affb9d112a7e23c03a96d,Group_FJ,0,52a990b3122680c5997bd313b7d6c0868bc4bd61a8a5bd9b06d3983cdcabd842,2825.66326212883,False,keypress,testRsp,496,[],choice-response,Lab,618f9adba4bd53a30fa816db,Lab6,1280,196,DiscriminationTrials
607affb9d112a7e23c03a96d,Group_FJ,0,52a990b3122680c5997bd313b7d6c0868bc4bd61a8a5bd9b06d3983cdcabd842,2825.66326212883,False,keypress,testRsp,629,[],choice-response,Lab,618f9adba4bd53a30fa816db,Lab3,1387,197,DiscriminationTrials
607affb9d112a7e23c03a96d,Group_FJ,0,52a990b3122680c5997bd313b7d6c0868bc4bd61a8a5bd9b06d3983cdcabd842,2825.66326212883,False,keypress,testRsp,812,[],choice-response,Lab,618f9adba4bd53a30fa816db,Lab2,1590,198,DiscriminationTrials
607affb9d112a7e23c03a96d,Group_FJ,0,52a990b3122680c5997bd313b7d6c0868bc4bd61a8a5bd9b06d3983cdcabd842,2825.66326212883,False,keypress,testRsp,996,[],choice-response,Lap,618f9adba4bd53a30fa816db,Lab5,1783,199,DiscriminationTrials
607affb9d112a7e23c03a96d,Group_FJ,0,52a990b3122680c5997bd313b7d6c0868bc4bd61a8a5bd9b06d3983cdcabd842,2825.66326212883,False,keypress,testRsp,386,[],choice-response,Lap,618f9adba4bd53a30fa816db,Lab1,1065,200,DiscriminationTrials
607affb9d112a7e23c03a96d,Group_FJ,0,52a990b3122680c5997bd313b7d6c0868bc4bd61a8a5bd9b06d3983cdcabd842,2825.66326212883,False,keypress,testRsp,724,[],choice-response,Lap,618f9adba4bd53a30fa816db,Lab7,1755,201,DiscriminationTrials
607affb9d112a7e23c03a96d,Group_FJ,0,52a990b3122680c5997bd313b7d6c0868bc4bd61a8a5bd9b06d3983cdcabd842,2825.66326212883,False,keypress,testRsp,458,[],choice-response,Lap,618f9adba4bd53a30fa816db,Lab8,1699,202,DiscriminationTrials
607affb9d112a7e23c03a96d,Group_FJ,0,52a990b3122680c5997bd313b7d6c0868bc4bd61a8a5bd9b06d3983cdcabd842,2825.66326212883,False,keypress,testRsp,574,[],choice-response,Lap,618f9adba4bd53a30fa816db,Lab4,1666,203,DiscriminationTrials
607affb9d112a7e23c03a96d,Group_FJ,0,52a990b3122680c5997bd313b7d6c0868bc4bd61a8a5bd9b06d3983cdcabd842,2825.66326212883,False,keypress,testRsp,343,[],choice-response,Lap,618f9adba4bd53a30fa816db,Lab4,1064,204,DiscriminationTrials
607affb9d112a7e23c03a96d,Group_FJ,0,52a990b3122680c5997bd313b7d6c0868bc4bd61a8a5bd9b06d3983cdcabd842,2825.66326212883,False,keypress,testRsp,927,[],choice-response,Lap,618f9adba4bd53a30fa816db,Lab3,2002,205,DiscriminationTrials
607affb9d112a7e23c03a96d,Group_FJ,0,52a990b3122680c5997bd313b7d6c0868bc4bd61a8a5bd9b06d3983cdcabd842,2825.66326212883,False,keypress,testRsp,240,[],choice-response,Lab,618f9adba4bd53a30fa816db,Lab7,1072,206,DiscriminationTrials
607affb9d112a7e23c03a96d,Group_FJ,0,52a990b3122680c5997bd313b7d6c0868bc4bd61a8a5bd9b06d3983cdcabd842,2825.66326212883,False,keypress,testRsp,567,[],choice-response,Lab,618f9adba4bd53a30fa816db,Lab1,1319,207,DiscriminationTrials
607affb9d112a7e23c03a96d,Group_FJ,0,52a990b3122680c5997bd313b7d6c0868bc4bd61a8a5bd9b06d3983cdcabd842,2825.66326212883,False,keypress,testRsp,356,[],choice-response,Lab,618f9adba4bd53a30fa816db,Lab8,1260,208,DiscriminationTrials
607affb9d112a7e23c03a96d,Group_FJ,0,52a990b3122680c5997bd313b7d6c0868bc4bd61a8a5bd9b06d3983cdcabd842,2825.66326212883,False,keypress,testRsp,403,[],choice-response,Lab,618f9adba4bd53a30fa816db,Lab6,1626,209,DiscriminationTrials
607affb9d112a7e23c03a96d,Group_FJ,0,52a990b3122680c5997bd313b7d6c0868bc4bd61a8a5bd9b06d3983cdcabd842,2825.66326212883,False,keypress,testRsp,518,[],choice-response,Lap,618f9adba4bd53a30fa816db,Lab2,1599,210,DiscriminationTrials
607affb9d112a7e23c03a96d,Group_FJ,0,52a990b3122680c5997bd313b7d6c0868bc4bd61a8a5bd9b06d3983cdcabd842,2825.66326212883,False,keypress,testRsp,396,[],choice-response,Lab,618f9adba4bd53a30fa816db,Lab5,1595,211,DiscriminationTrials
607affb9d112a7e23c03a96d,Group_FJ,0,52a990b3122680c5997bd313b7d6c0868bc4bd61a8a5bd9b06d3983cdcabd842,2825.66326212883,False,keypress,testRsp,498,[],choice-response,Lab,618f9adba4bd53a30fa816db,Lab5,1286,212,DiscriminationTrials
607affb9d112a7e23c03a96d,Group_FJ,0,52a990b3122680c5997bd313b7d6c0868bc4bd61a8a5bd9b06d3983cdcabd842,2825.66326212883,False,keypress,testRsp,416,[],choice-response,Lap,618f9adba4bd53a30fa816db,Lab1,1097,213,DiscriminationTrials
607affb9d112a7e23c03a96d,Group_FJ,0,52a990b3122680c5997bd313b7d6c0868bc4bd61a8a5bd9b06d3983cdcabd842,2825.66326212883,False,keypress,testRsp,333,[],choice-response,Lab,618f9adba4bd53a30fa816db,Lab7,1156,214,DiscriminationTrials
607affb9d112a7e23c03a96d,Group_FJ,0,52a990b3122680c5997bd313b7d6c0868bc4bd61a8a5bd9b06d3983cdcabd842,2825.66326212883,False,keypress,testRsp,623,[],choice-response,Lap,618f9adba4bd53a30fa816db,Lab4,1376,215,DiscriminationTrials
607affb9d112a7e23c03a96d,Group_FJ,0,52a990b3122680c5997bd313b7d6c0868bc4bd61a8a5bd9b06d3983cdcabd842,2825.66326212883,False,keypress,testRsp,536,[],choice-response,Lap,618f9adba4bd53a30fa816db,Lab3,1267,216,DiscriminationTrials
607affb9d112a7e23c03a96d,Group_FJ,0,52a990b3122680c5997bd313b7d6c0868bc4bd61a8a5bd9b06d3983cdcabd842,2825.66326212883,False,keypress,testRsp,675,[],choice-response,Lab,618f9adba4bd53a30fa816db,Lab8,1507,217,DiscriminationTrials
607affb9d112a7e23c03a96d,Group_FJ,0,52a990b3122680c5997bd313b7d6c0868bc4bd61a8a5bd9b06d3983cdcabd842,2825.66326212883,False,keypress,testRsp,443,[],choice-response,Lap,618f9adba4bd53a30fa816db,Lab2,1146,218,DiscriminationTrials
607affb9d112a7e23c03a96d,Group_FJ,0,52a990b3122680c5997bd313b7d6c0868bc4bd61a8a5bd9b06d3983cdcabd842,2825.66326212883,False,keypress,testRsp,516,[],choice-response,Lab,618f9adba4bd53a30fa816db,Lab6,1326,219,DiscriminationTrials
607affb9d112a7e23c03a96d,Group_FJ,0,52a990b3122680c5997bd313b7d6c0868bc4bd61a8a5bd9b06d3983cdcabd842,2825.66326212883,False,keypress,testRsp,842,[],choice-response,Lab,618f9adba4bd53a30fa816db,Lab7,1670,220,DiscriminationTrials
607affb9d112a7e23c03a96d,Group_FJ,0,52a990b3122680c5997bd313b7d6c0868bc4bd61a8a5bd9b06d3983cdcabd842,2825.66326212883,False,keypress,testRsp,535,[],choice-response,Lap,618f9adba4bd53a30fa816db,Lab2,1573,221,DiscriminationTrials
607affb9d112a7e23c03a96d,Group_FJ,0,52a990b3122680c5997bd313b7d6c0868bc4bd61a8a5bd9b06d3983cdcabd842,2825.66326212883,False,keypress,testRsp,454,[],choice-response,Lab,618f9adba4bd53a30fa816db,Lab4,1610,222,DiscriminationTrials
607affb9d112a7e23c03a96d,Group_FJ,0,52a990b3122680c5997bd313b7d6c0868bc4bd61a8a5bd9b06d3983cdcabd842,2825.66326212883,False,keypress,testRsp,531,[],choice-response,Lap,618f9adba4bd53a30fa816db,Lab1,1510,223,DiscriminationTrials
607affb9d112a7e23c03a96d,Group_FJ,0,52a990b3122680c5997bd313b7d6c0868bc4bd61a8a5bd9b06d3983cdcabd842,2825.66326212883,False,keypress,testRsp,382,[],choice-response,Lab,618f9adba4bd53a30fa816db,Lab6,1470,224,DiscriminationTrials
607affb9d112a7e23c03a96d,Group_FJ,0,52a990b3122680c5997bd313b7d6c0868bc4bd61a8a5bd9b06d3983cdcabd842,2825.66326212883,False,keypress,testRsp,244,[],choice-response,Lab,618f9adba4bd53a30fa816db,Lab8,1333,225,DiscriminationTrials
607affb9d112a7e23c03a96d,Group_FJ,0,52a990b3122680c5997bd313b7d6c0868bc4bd61a8a5bd9b06d3983cdcabd842,2825.66326212883,False,keypress,testRsp,753,[],choice-response,Lab,618f9adba4bd53a30fa816db,Lab5,1734,226,DiscriminationTrials
607affb9d112a7e23c03a96d,Group_FJ,0,52a990b3122680c5997bd313b7d6c0868bc4bd61a8a5bd9b06d3983cdcabd842,2825.66326212883,False,keypress,testRsp,275,[],choice-response,Lap,618f9adba4bd53a30fa816db,Lab3,1242,227,DiscriminationTrials
607affb9d112a7e23c03a96d,Group_FJ,0,52a990b3122680c5997bd313b7d6c0868bc4bd61a8a5bd9b06d3983cdcabd842,2825.66326212883,False,keypress,testRsp,515,[],choice-response,Lab,618f9adba4bd53a30fa816db,Lab6,1456,228,DiscriminationTrials
607affb9d112a7e23c03a96d,Group_FJ,0,52a990b3122680c5997bd313b7d6c0868bc4bd61a8a5bd9b06d3983cdcabd842,2825.66326212883,False,keypress,testRsp,908,[],choice-response,Lap,618f9adba4bd53a30fa816db,Lab3,1636,229,DiscriminationTrials
607affb9d112a7e23c03a96d,Group_FJ,0,52a990b3122680c5997bd313b7d6c0868bc4bd61a8a5bd9b06d3983cdcabd842,2825.66326212883,False,keypress,testRsp,387,[],choice-response,Lab,618f9adba4bd53a30fa816db,Lab8,1237,230,DiscriminationTrials
607affb9d112a7e23c03a96d,Group_FJ,0,52a990b3122680c5997bd313b7d6c0868bc4bd61a8a5bd9b06d3983cdcabd842,2825.66326212883,False,keypress,testRsp,568,[],choice-response,Lap,618f9adba4bd53a30fa816db,Lab4,1388,231,DiscriminationTrials
607affb9d112a7e23c03a96d,Group_FJ,0,52a990b3122680c5997bd313b7d6c0868bc4bd61a8a5bd9b06d3983cdcabd842,2825.66326212883,False,keypress,testRsp,734,[],choice-response,Lab,618f9adba4bd53a30fa816db,Lab1,1419,232,DiscriminationTrials
607affb9d112a7e23c03a96d,Group_FJ,0,52a990b3122680c5997bd313b7d6c0868bc4bd61a8a5bd9b06d3983cdcabd842,2825.66326212883,False,keypress,testRsp,475,[],choice-response,Lap,618f9adba4bd53a30fa816db,Lab2,1185,233,DiscriminationTrials
607affb9d112a7e23c03a96d,Group_FJ,0,52a990b3122680c5997bd313b7d6c0868bc4bd61a8a5bd9b06d3983cdcabd842,2825.66326212883,False,keypress,testRsp,385,[],choice-response,Lab,618f9adba4bd53a30fa816db,Lab5,1141,234,DiscriminationTrials
607affb9d112a7e23c03a96d,Group_FJ,0,52a990b3122680c5997bd313b7d6c0868bc4bd61a8a5bd9b06d3983cdcabd842,2825.66326212883,False,keypress,testRsp,664,[],choice-response,Lab,618f9adba4bd53a30fa816db,Lab7,1494,235,DiscriminationTrials
607affb9d112a7e23c03a96d,Group_FJ,0,52a990b3122680c5997bd313b7d6c0868bc4bd61a8a5bd9b06d3983cdcabd842,2825.66326212883,False,keypress,testRsp,427,[],choice-response,Lap,618f9adba4bd53a30fa816db,Lab1,1204,236,DiscriminationTrials
607affb9d112a7e23c03a96d,Group_FJ,0,52a990b3122680c5997bd313b7d6c0868bc4bd61a8a5bd9b06d3983cdcabd842,2825.66326212883,False,keypress,testRsp,398,[],choice-response,Lab,618f9adba4bd53a30fa816db,Lab7,1188,237,DiscriminationTrials
607affb9d112a7e23c03a96d,Group_FJ,0,52a990b3122680c5997bd313b7d6c0868bc4bd61a8a5bd9b06d3983cdcabd842,2825.66326212883,False,keypress,testRsp,814,[],choice-response,Lap,618f9adba4bd53a30fa816db,Lab2,1594,238,DiscriminationTrials
607affb9d112a7e23c03a96d,Group_FJ,0,52a990b3122680c5997bd313b7d6c0868bc4bd61a8a5bd9b06d3983cdcabd842,2825.66326212883,False,keypress,testRsp,1176,[],choice-response,Lab,618f9adba4bd53a30fa816db,Lab5,1958,239,DiscriminationTrials
607affb9d112a7e23c03a96d,Group_FJ,0,52a990b3122680c5997bd313b7d6c0868bc4bd61a8a5bd9b06d3983cdcabd842,2825.66326212883,False,keypress,testRsp,1149,[],choice-response,Lap,618f9adba4bd53a30fa816db,Lab3,1927,240,DiscriminationTrials
607affb9d112a7e23c03a96d,Group_FJ,0,52a990b3122680c5997bd313b7d6c0868bc4bd61a8a5bd9b06d3983cdcabd842,2825.66326212883,False,keypress,testRsp,1576,[],choice-response,Lab,618f9adba4bd53a30fa816db,Lab6,2362,241,DiscriminationTrials
607affb9d112a7e23c03a96d,Group_FJ,0,52a990b3122680c5997bd313b7d6c0868bc4bd61a8a5bd9b06d3983cdcabd842,2825.66326212883,False,keypress,testRsp,580,[],choice-response,Lab,618f9adba4bd53a30fa816db,Lab4,1688,242,DiscriminationTrials
607affb9d112a7e23c03a96d,Group_FJ,0,52a990b3122680c5997bd313b7d6c0868bc4bd61a8a5bd9b06d3983cdcabd842,2825.66326212883,False,keypress,testRsp,529,[],choice-response,Lab,618f9adba4bd53a30fa816db,Lab8,1635,243,DiscriminationTrials
607affb9d112a7e23c03a96d,Group_FJ,0,52a990b3122680c5997bd313b7d6c0868bc4bd61a8a5bd9b06d3983cdcabd842,2825.66326212883,False,keypress,testRsp,1131,[],choice-response,Lab,618f9adba4bd53a30fa816db,Lab6,1916,244,DiscriminationTrials
607affb9d112a7e23c03a96d,Group_FJ,0,52a990b3122680c5997bd313b7d6c0868bc4bd61a8a5bd9b06d3983cdcabd842,2825.66326212883,False,keypress,testRsp,570,[],choice-response,Lab,618f9adba4bd53a30fa816db,Lab4,1286,245,DiscriminationTrials
607affb9d112a7e23c03a96d,Group_FJ,0,52a990b3122680c5997bd313b7d6c0868bc4bd61a8a5bd9b06d3983cdcabd842,2825.66326212883,False,keypress,testRsp,314,[],choice-response,Lap,618f9adba4bd53a30fa816db,Lab1,1365,246,DiscriminationTrials
607affb9d112a7e23c03a96d,Group_FJ,0,52a990b3122680c5997bd313b7d6c0868bc4bd61a8a5bd9b06d3983cdcabd842,2825.66326212883,False,keypress,testRsp,501,[],choice-response,Lab,618f9adba4bd53a30fa816db,Lab8,1525,247,DiscriminationTrials
607affb9d112a7e23c03a96d,Group_FJ,0,52a990b3122680c5997bd313b7d6c0868bc4bd61a8a5bd9b06d3983cdcabd842,2825.66326212883,False,keypress,testRsp,535,[],choice-response,Lap,618f9adba4bd53a30fa816db,Lab2,1558,248,DiscriminationTrials
607affb9d112a7e23c03a96d,Group_FJ,0,52a990b3122680c5997bd313b7d6c0868bc4bd61a8a5bd9b06d3983cdcabd842,2825.66326212883,False,keypress,testRsp,1243,[],choice-response,Lap,618f9adba4bd53a30fa816db,Lab3,2294,249,DiscriminationTrials
607affb9d112a7e23c03a96d,Group_FJ,0,52a990b3122680c5997bd313b7d6c0868bc4bd61a8a5bd9b06d3983cdcabd842,2825.66326212883,False,keypress,testRsp,403,[],choice-response,Lab,618f9adba4bd53a30fa816db,Lab5,1478,250,DiscriminationTrials
607affb9d112a7e23c03a96d,Group_FJ,0,52a990b3122680c5997bd313b7d6c0868bc4bd61a8a5bd9b06d3983cdcabd842,2825.66326212883,False,keypress,testRsp,1279,[],choice-response,Lab,618f9adba4bd53a30fa816db,Lab7,2420,251,DiscriminationTrials
607affb9d112a7e23c03a96d,Group_FJ,0,52a990b3122680c5997bd313b7d6c0868bc4bd61a8a5bd9b06d3983cdcabd842,2825.66326212883,False,keypress,testRsp,623,[],choice-response,Lab,618f9adba4bd53a30fa816db,Lab7,1413,252,DiscriminationTrials
607affb9d112a7e23c03a96d,Group_FJ,0,52a990b3122680c5997bd313b7d6c0868bc4bd61a8a5bd9b06d3983cdcabd842,2825.66326212883,False,keypress,testRsp,400,[],choice-response,Lap,618f9adba4bd53a30fa816db,Lab3,1148,253,DiscriminationTrials
607affb9d112a7e23c03a96d,Group_FJ,0,52a990b3122680c5997bd313b7d6c0868bc4bd61a8a5bd9b06d3983cdcabd842,2825.66326212883,False,keypress,testRsp,283,[],choice-response,Lap,618f9adba4bd53a30fa816db,Lab1,1044,254,DiscriminationTrials
607affb9d112a7e23c03a96d,Group_FJ,0,52a990b3122680c5997bd313b7d6c0868bc4bd61a8a5bd9b06d3983cdcabd842,2825.66326212883,False,keypress,testRsp,381,[],choice-response,Lab,618f9adba4bd53a30fa816db,Lab8,1430,255,DiscriminationTrials
607affb9d112a7e23c03a96d,Group_FJ,0,52a990b3122680c5997bd313b7d6c0868bc4bd61a8a5bd9b06d3983cdcabd842,2825.66326212883,False,keypress,testRsp,334,[],choice-response,Lap,618f9adba4bd53a30fa816db,Lab2,1016,256,DiscriminationTrials
607affb9d112a7e23c03a96d,Group_FJ,0,52a990b3122680c5997bd313b7d6c0868bc4bd61a8a5bd9b06d3983cdcabd842,2825.66326212883,False,keypress,testRsp,662,[],choice-response,Lap,618f9adba4bd53a30fa816db,Lab4,1579,257,DiscriminationTrials
607affb9d112a7e23c03a96d,Group_FJ,0,52a990b3122680c5997bd313b7d6c0868bc4bd61a8a5bd9b06d3983cdcabd842,2825.66326212883,False,keypress,testRsp,312,[],choice-response,Lab,618f9adba4bd53a30fa816db,Lab5,1096,258,DiscriminationTrials
607affb9d112a7e23c03a96d,Group_FJ,0,52a990b3122680c5997bd313b7d6c0868bc4bd61a8a5bd9b06d3983cdcabd842,2825.66326212883,False,keypress,testRsp,265,[],choice-response,Lab,618f9adba4bd53a30fa816db,Lab6,1287,259,DiscriminationTrials
607affb9d112a7e23c03a96d,Group_FJ,0,52a990b3122680c5997bd313b7d6c0868bc4bd61a8a5bd9b06d3983cdcabd842,2825.66326212883,False,keypress,testRsp,532,[],choice-response,Lab,618f9adba4bd53a30fa816db,Lab7,1457,260,DiscriminationTrials
607affb9d112a7e23c03a96d,Group_FJ,0,52a990b3122680c5997bd313b7d6c0868bc4bd61a8a5bd9b06d3983cdcabd842,2825.66326212883,False,keypress,testRsp,965,[],choice-response,Lab,618f9adba4bd53a30fa816db,Lab8,2278,261,DiscriminationTrials
607affb9d112a7e23c03a96d,Group_FJ,0,52a990b3122680c5997bd313b7d6c0868bc4bd61a8a5bd9b06d3983cdcabd842,2825.66326212883,False,keypress,testRsp,472,[],choice-response,Lap,618f9adba4bd53a30fa816db,Lab3,1600,262,DiscriminationTrials
607affb9d112a7e23c03a96d,Group_FJ,0,52a990b3122680c5997bd313b7d6c0868bc4bd61a8a5bd9b06d3983cdcabd842,2825.66326212883,False,keypress,testRsp,486,[],choice-response,Lap,618f9adba4bd53a30fa816db,Lab1,1513,263,DiscriminationTrials
607affb9d112a7e23c03a96d,Group_FJ,0,52a990b3122680c5997bd313b7d6c0868bc4bd61a8a5bd9b06d3983cdcabd842,2825.66326212883,False,keypress,testRsp,492,[],choice-response,Lap,618f9adba4bd53a30fa816db,Lab5,1635,264,DiscriminationTrials
607affb9d112a7e23c03a96d,Group_FJ,0,52a990b3122680c5997bd313b7d6c0868bc4bd61a8a5bd9b06d3983cdcabd842,2825.66326212883,False,keypress,testRsp,599,[],choice-response,Lap,618f9adba4bd53a30fa816db,Lab6,1774,265,DiscriminationTrials
607affb9d112a7e23c03a96d,Group_FJ,0,52a990b3122680c5997bd313b7d6c0868bc4bd61a8a5bd9b06d3983cdcabd842,2825.66326212883,False,keypress,testRsp,438,[],choice-response,Lap,618f9adba4bd53a30fa816db,Lab4,1501,266,DiscriminationTrials
607affb9d112a7e23c03a96d,Group_FJ,0,52a990b3122680c5997bd313b7d6c0868bc4bd61a8a5bd9b06d3983cdcabd842,2825.66326212883,False,keypress,testRsp,567,[],choice-response,Lab,618f9adba4bd53a30fa816db,Lab2,1765,267,DiscriminationTrials
607affb9d112a7e23c03a96d,Group_FJ,0,52a990b3122680c5997bd313b7d6c0868bc4bd61a8a5bd9b06d3983cdcabd842,2825.66326212883,False,keypress,testRsp,378,[],choice-response,Lab,618f9adba4bd53a30fa816db,Lab3,1135,268,DiscriminationTrials
607affb9d112a7e23c03a96d,Group_FJ,0,52a990b3122680c5997bd313b7d6c0868bc4bd61a8a5bd9b06d3983cdcabd842,2825.66326212883,False,keypress,testRsp,557,[],choice-response,Lab,618f9adba4bd53a30fa816db,Lab2,1287,269,DiscriminationTrials
607affb9d112a7e23c03a96d,Group_FJ,0,52a990b3122680c5997bd313b7d6c0868bc4bd61a8a5bd9b06d3983cdcabd842,2825.66326212883,False,keypress,testRsp,612,[],choice-response,Lab,618f9adba4bd53a30fa816db,Lab4,1435,270,DiscriminationTrials
607affb9d112a7e23c03a96d,Group_FJ,0,52a990b3122680c5997bd313b7d6c0868bc4bd61a8a5bd9b06d3983cdcabd842,2825.66326212883,False,keypress,testRsp,715,[],choice-response,Lab,618f9adba4bd53a30fa816db,Lab7,1561,271,DiscriminationTrials
607affb9d112a7e23c03a96d,Group_FJ,0,52a990b3122680c5997bd313b7d6c0868bc4bd61a8a5bd9b06d3983cdcabd842,2825.66326212883,False,keypress,testRsp,326,[],choice-response,Lap,618f9adba4bd53a30fa816db,Lab1,1018,272,DiscriminationTrials
607affb9d112a7e23c03a96d,Group_FJ,0,52a990b3122680c5997bd313b7d6c0868bc4bd61a8a5bd9b06d3983cdcabd842,2825.66326212883,False,keypress,testRsp,286,[],choice-response,Lab,618f9adba4bd53a30fa816db,Lab8,1116,273,DiscriminationTrials
607affb9d112a7e23c03a96d,Group_FJ,0,52a990b3122680c5997bd313b7d6c0868bc4bd61a8a5bd9b06d3983cdcabd842,2825.66326212883,False,keypress,testRsp,1570,[],choice-response,Lab,618f9adba4bd53a30fa816db,Lab6,2370,274,DiscriminationTrials
607affb9d112a7e23c03a96d,Group_FJ,0,52a990b3122680c5997bd313b7d6c0868bc4bd61a8a5bd9b06d3983cdcabd842,2825.66326212883,False,keypress,testRsp,577,[],choice-response,Lab,618f9adba4bd53a30fa816db,Lab5,1357,275,DiscriminationTrials
607affb9d112a7e23c03a96d,Group_FJ,0,52a990b3122680c5997bd313b7d6c0868bc4bd61a8a5bd9b06d3983cdcabd842,2825.66326212883,False,keypress,testRsp,215,[],choice-response,Lap,618f9adba4bd53a30fa816db,Lab4,956,276,DiscriminationTrials
607affb9d112a7e23c03a96d,Group_FJ,0,52a990b3122680c5997bd313b7d6c0868bc4bd61a8a5bd9b06d3983cdcabd842,2825.66326212883,False,keypress,testRsp,275,[],choice-response,Lab,618f9adba4bd53a30fa816db,Lab7,1368,277,DiscriminationTrials
607affb9d112a7e23c03a96d,Group_FJ,0,52a990b3122680c5997bd313b7d6c0868bc4bd61a8a5bd9b06d3983cdcabd842,2825.66326212883,False,keypress,testRsp,684,[],choice-response,Lap,618f9adba4bd53a30fa816db,Lab8,1685,278,DiscriminationTrials
607affb9d112a7e23c03a96d,Group_FJ,0,52a990b3122680c5997bd313b7d6c0868bc4bd61a8a5bd9b06d3983cdcabd842,2825.66326212883,False,keypress,testRsp,415,[],choice-response,Lap,618f9adba4bd53a30fa816db,Lab1,1134,279,DiscriminationTrials
607affb9d112a7e23c03a96d,Group_FJ,0,52a990b3122680c5997bd313b7d6c0868bc4bd61a8a5bd9b06d3983cdcabd842,2825.66326212883,False,keypress,testRsp,417,[],choice-response,Lap,618f9adba4bd53a30fa816db,Lab2,1163,280,DiscriminationTrials
607affb9d112a7e23c03a96d,Group_FJ,0,52a990b3122680c5997bd313b7d6c0868bc4bd61a8a5bd9b06d3983cdcabd842,2825.66326212883,False,keypress,testRsp,400,[],choice-response,Lap,618f9adba4bd53a30fa816db,Lab5,1658,281,DiscriminationTrials
607affb9d112a7e23c03a96d,Group_FJ,0,52a990b3122680c5997bd313b7d6c0868bc4bd61a8a5bd9b06d3983cdcabd842,2825.66326212883,False,keypress,testRsp,572,[],choice-response,Lap,618f9adba4bd53a30fa816db,Lab6,1709,282,DiscriminationTrials
607affb9d112a7e23c03a96d,Group_FJ,0,52a990b3122680c5997bd313b7d6c0868bc4bd61a8a5bd9b06d3983cdcabd842,2825.66326212883,False,keypress,testRsp,530,[],choice-response,Lap,618f9adba4bd53a30fa816db,Lab3,1584,283,DiscriminationTrials
607affb9d112a7e23c03a96d,Group_FJ,0,52a990b3122680c5997bd313b7d6c0868bc4bd61a8a5bd9b06d3983cdcabd842,2825.66326212883,False,keypress,testRsp,434,[],choice-response,Lap,618f9adba4bd53a30fa816db,Lab1,1469,284,DiscriminationTrials
607affb9d112a7e23c03a96d,Group_FJ,0,52a990b3122680c5997bd313b7d6c0868bc4bd61a8a5bd9b06d3983cdcabd842,2825.66326212883,False,keypress,testRsp,172,[],choice-response,Lab,618f9adba4bd53a30fa816db,Lab8,1317,285,DiscriminationTrials
607affb9d112a7e23c03a96d,Group_FJ,0,52a990b3122680c5997bd313b7d6c0868bc4bd61a8a5bd9b06d3983cdcabd842,2825.66326212883,False,keypress,testRsp,300,[],choice-response,Lab,618f9adba4bd53a30fa816db,Lab5,1067,286,DiscriminationTrials
607affb9d112a7e23c03a96d,Group_FJ,0,52a990b3122680c5997bd313b7d6c0868bc4bd61a8a5bd9b06d3983cdcabd842,2825.66326212883,False,keypress,testRsp,273,[],choice-response,Lab,618f9adba4bd53a30fa816db,Lab6,1137,287,DiscriminationTrials
607affb9d112a7e23c03a96d,Group_FJ,0,52a990b3122680c5997bd313b7d6c0868bc4bd61a8a5bd9b06d3983cdcabd842,2825.66326212883,False,keypress,testRsp,242,[],choice-response,Lab,618f9adba4bd53a30fa816db,Lab7,1459,288,DiscriminationTrials
607affb9d112a7e23c03a96d,Group_FJ,0,52a990b3122680c5997bd313b7d6c0868bc4bd61a8a5bd9b06d3983cdcabd842,2825.66326212883,False,keypress,testRsp,273,[],choice-response,Lap,618f9adba4bd53a30fa816db,Lab2,1222,289,DiscriminationTrials
607affb9d112a7e23c03a96d,Group_FJ,0,52a990b3122680c5997bd313b7d6c0868bc4bd61a8a5bd9b06d3983cdcabd842,2825.66326212883,False,keypress,testRsp,419,[],choice-response,Lap,618f9adba4bd53a30fa816db,Lab3,1295,290,DiscriminationTrials
607affb9d112a7e23c03a96d,Group_FJ,0,52a990b3122680c5997bd313b7d6c0868bc4bd61a8a5bd9b06d3983cdcabd842,2825.66326212883,False,keypress,testRsp,420,[],choice-response,Lab,618f9adba4bd53a30fa816db,Lab4,1575,291,DiscriminationTrials
607affb9d112a7e23c03a96d,Group_FJ,0,52a990b3122680c5997bd313b7d6c0868bc4bd61a8a5bd9b06d3983cdcabd842,2825.66326212883,False,keypress,testRsp,272,[],choice-response,Lab,618f9adba4bd53a30fa816db,Lab8,1126,292,DiscriminationTrials
607affb9d112a7e23c03a96d,Group_FJ,0,52a990b3122680c5997bd313b7d6c0868bc4bd61a8a5bd9b06d3983cdcabd842,2825.66326212883,False,keypress,testRsp,472,[],choice-response,Lab,618f9adba4bd53a30fa816db,Lab4,1208,293,DiscriminationTrials
607affb9d112a7e23c03a96d,Group_FJ,0,52a990b3122680c5997bd313b7d6c0868bc4bd61a8a5bd9b06d3983cdcabd842,2825.66326212883,False,keypress,testRsp,782,[],choice-response,Lab,618f9adba4bd53a30fa816db,Lab1,1544,294,DiscriminationTrials
607affb9d112a7e23c03a96d,Group_FJ,0,52a990b3122680c5997bd313b7d6c0868bc4bd61a8a5bd9b06d3983cdcabd842,2825.66326212883,False,keypress,testRsp,977,[],choice-response,Lab,618f9adba4bd53a30fa816db,Lab2,1692,295,DiscriminationTrials
607affb9d112a7e23c03a96d,Group_FJ,0,52a990b3122680c5997bd313b7d6c0868bc4bd61a8a5bd9b06d3983cdcabd842,2825.66326212883,False,keypress,testRsp,1092,[],choice-response,Lab,618f9adba4bd53a30fa816db,Lab5,1864,296,DiscriminationTrials
607affb9d112a7e23c03a96d,Group_FJ,0,52a990b3122680c5997bd313b7d6c0868bc4bd61a8a5bd9b06d3983cdcabd842,2825.66326212883,False,keypress,testRsp,460,[],choice-response,Lap,618f9adba4bd53a30fa816db,Lab3,1207,297,DiscriminationTrials
607affb9d112a7e23c03a96d,Group_FJ,0,52a990b3122680c5997bd313b7d6c0868bc4bd61a8a5bd9b06d3983cdcabd842,2825.66326212883,False,keypress,testRsp,563,[],choice-response,Lab,618f9adba4bd53a30fa816db,Lab7,1369,298,DiscriminationTrials
607affb9d112a7e23c03a96d,Group_FJ,0,52a990b3122680c5997bd313b7d6c0868bc4bd61a8a5bd9b06d3983cdcabd842,2825.66326212883,False,keypress,testRsp,341,[],choice-response,Lab,618f9adba4bd53a30fa816db,Lab6,1149,299,DiscriminationTrials
607affb9d112a7e23c03a96d,Group_FJ,0,52a990b3122680c5997bd313b7d6c0868bc4bd61a8a5bd9b06d3983cdcabd842,2825.66326212883,False,keypress,testRsp,500,[],choice-response,Lap,618f9adba4bd53a30fa816db,Lab1,1350,300,DiscriminationTrials
607affb9d112a7e23c03a96d,Group_FJ,0,52a990b3122680c5997bd313b7d6c0868bc4bd61a8a5bd9b06d3983cdcabd842,2825.66326212883,False,keypress,testRsp,535,[],choice-response,Lab,618f9adba4bd53a30fa816db,Lab4,1721,301,DiscriminationTrials
607affb9d112a7e23c03a96d,Group_FJ,0,52a990b3122680c5997bd313b7d6c0868bc4bd61a8a5bd9b06d3983cdcabd842,2825.66326212883,False,keypress,testRsp,736,[],choice-response,Lap,618f9adba4bd53a30fa816db,Lab3,1795,302,DiscriminationTrials
607affb9d112a7e23c03a96d,Group_FJ,0,52a990b3122680c5997bd313b7d6c0868bc4bd61a8a5bd9b06d3983cdcabd842,2825.66326212883,False,keypress,testRsp,773,[],choice-response,Lap,618f9adba4bd53a30fa816db,Lab2,1900,303,DiscriminationTrials
607affb9d112a7e23c03a96d,Group_FJ,0,52a990b3122680c5997bd313b7d6c0868bc4bd61a8a5bd9b06d3983cdcabd842,2825.66326212883,False,keypress,testRsp,894,[],choice-response,Lab,618f9adba4bd53a30fa816db,Lab6,2198,304,DiscriminationTrials
607affb9d112a7e23c03a96d,Group_FJ,0,52a990b3122680c5997bd313b7d6c0868bc4bd61a8a5bd9b06d3983cdcabd842,2825.66326212883,False,keypress,testRsp,582,[],choice-response,Lab,618f9adba4bd53a30fa816db,Lab5,1743,305,DiscriminationTrials
607affb9d112a7e23c03a96d,Group_FJ,0,52a990b3122680c5997bd313b7d6c0868bc4bd61a8a5bd9b06d3983cdcabd842,2825.66326212883,False,keypress,testRsp,311,[],choice-response,Lab,618f9adba4bd53a30fa816db,Lab8,1556,306,DiscriminationTrials
607affb9d112a7e23c03a96d,Group_FJ,0,52a990b3122680c5997bd313b7d6c0868bc4bd61a8a5bd9b06d3983cdcabd842,2825.66326212883,False,keypress,testRsp,948,[],choice-response,Lab,618f9adba4bd53a30fa816db,Lab7,2317,307,DiscriminationTrials
607affb9d112a7e23c03a96d,Group_FJ,0,52a990b3122680c5997bd313b7d6c0868bc4bd61a8a5bd9b06d3983cdcabd842,2825.66326212883,False,keypress,testRsp,3920,[],choice-response,Lab,618f9adba4bd53a30fa816db,Lab4,4665,308,DiscriminationTrials
607affb9d112a7e23c03a96d,Group_FJ,0,52a990b3122680c5997bd313b7d6c0868bc4bd61a8a5bd9b06d3983cdcabd842,2825.66326212883,False,keypress,testRsp,434,[],choice-response,Lab,618f9adba4bd53a30fa816db,Lab8,1306,309,DiscriminationTrials
607affb9d112a7e23c03a96d,Group_FJ,0,52a990b3122680c5997bd313b7d6c0868bc4bd61a8a5bd9b06d3983cdcabd842,2825.66326212883,False,keypress,testRsp,2290,[],choice-response,Lap,618f9adba4bd53a30fa816db,Lab6,3102,310,DiscriminationTrials
607affb9d112a7e23c03a96d,Group_FJ,0,52a990b3122680c5997bd313b7d6c0868bc4bd61a8a5bd9b06d3983cdcabd842,2825.66326212883,False,keypress,testRsp,353,[],choice-response,Lap,618f9adba4bd53a30fa816db,Lab2,1083,311,DiscriminationTrials
607affb9d112a7e23c03a96d,Group_FJ,0,52a990b3122680c5997bd313b7d6c0868bc4bd61a8a5bd9b06d3983cdcabd842,2825.66326212883,False,keypress,testRsp,274,[],choice-response,Lap,618f9adba4bd53a30fa816db,Lab3,1023,312,DiscriminationTrials
607affb9d112a7e23c03a96d,Group_FJ,0,52a990b3122680c5997bd313b7d6c0868bc4bd61a8a5bd9b06d3983cdcabd842,2825.66326212883,False,keypress,testRsp,269,[],choice-response,Lap,618f9adba4bd53a30fa816db,Lab1,1159,313,DiscriminationTrials
607affb9d112a7e23c03a96d,Group_FJ,0,52a990b3122680c5997bd313b7d6c0868bc4bd61a8a5bd9b06d3983cdcabd842,2825.66326212883,False,keypress,testRsp,878,[],choice-response,Lap,618f9adba4bd53a30fa816db,Lab7,1845,314,DiscriminationTrials
607affb9d112a7e23c03a96d,Group_FJ,0,52a990b3122680c5997bd313b7d6c0868bc4bd61a8a5bd9b06d3983cdcabd842,2825.66326212883,False,keypress,testRsp,274,[],choice-response,Lab,618f9adba4bd53a30fa816db,Lab5,1101,315,DiscriminationTrials
607affb9d112a7e23c03a96d,Group_FJ,0,52a990b3122680c5997bd313b7d6c0868bc4bd61a8a5bd9b06d3983cdcabd842,2825.66326212883,False,keypress,testRsp,229,[],choice-response,Lab,618f9adba4bd53a30fa816db,Lab1,1175,316,DiscriminationTrials
607affb9d112a7e23c03a96d,Group_FJ,0,52a990b3122680c5997bd313b7d6c0868bc4bd61a8a5bd9b06d3983cdcabd842,2825.66326212883,False,keypress,testRsp,194,[],choice-response,Lab,618f9adba4bd53a30fa816db,Lab6,1294,317,DiscriminationTrials
607affb9d112a7e23c03a96d,Group_FJ,0,52a990b3122680c5997bd313b7d6c0868bc4bd61a8a5bd9b06d3983cdcabd842,2825.66326212883,False,keypress,testRsp,271,[],choice-response,Lab,618f9adba4bd53a30fa816db,Lab8,1401,318,DiscriminationTrials
607affb9d112a7e23c03a96d,Group_FJ,0,52a990b3122680c5997bd313b7d6c0868bc4bd61a8a5bd9b06d3983cdcabd842,2825.66326212883,False,keypress,testRsp,331,[],choice-response,Lab,618f9adba4bd53a30fa816db,Lab5,1601,319,DiscriminationTrials
607affb9d112a7e23c03a96d,Group_FJ,0,52a990b3122680c5997bd313b7d6c0868bc4bd61a8a5bd9b06d3983cdcabd842,2825.66326212883,False,keypress,testRsp,243,[],choice-response,Lab,618f9adba4bd53a30fa816db,Lab4,1393,320,DiscriminationTrials
607affb9d112a7e23c03a96d,Group_FJ,0,52a990b3122680c5997bd313b7d6c0868bc4bd61a8a5bd9b06d3983cdcabd842,2825.66326212883,False,keypress,testRsp,1082,[],choice-response,Lap,618f9adba4bd53a30fa816db,Lab7,2140,321,DiscriminationTrials
607affb9d112a7e23c03a96d,Group_FJ,0,52a990b3122680c5997bd313b7d6c0868bc4bd61a8a5bd9b06d3983cdcabd842,2825.66326212883,False,keypress,testRsp,326,[],choice-response,Lap,618f9adba4bd53a30fa816db,Lab3,1497,322,DiscriminationTrials
607affb9d112a7e23c03a96d,Group_FJ,0,52a990b3122680c5997bd313b7d6c0868bc4bd61a8a5bd9b06d3983cdcabd842,2825.66326212883,False,keypress,testRsp,357,[],choice-response,Lap,618f9adba4bd53a30fa816db,Lab2,1508,323,DiscriminationTrials
607affb9d112a7e23c03a96d,Group_FJ,0,52a990b3122680c5997bd313b7d6c0868bc4bd61a8a5bd9b06d3983cdcabd842,2825.66326212883,False,keypress,testRsp,333,[],choice-response,Lap,618f9adba4bd53a30fa816db,Lab4,1065,324,DiscriminationTrials
607affb9d112a7e23c03a96d,Group_FJ,0,52a990b3122680c5997bd313b7d6c0868bc4bd61a8a5bd9b06d3983cdcabd842,2825.66326212883,False,keypress,testRsp,359,[],choice-response,Lap,618f9adba4bd53a30fa816db,Lab1,1075,325,DiscriminationTrials
607affb9d112a7e23c03a96d,Group_FJ,0,52a990b3122680c5997bd313b7d6c0868bc4bd61a8a5bd9b06d3983cdcabd842,2825.66326212883,False,keypress,testRsp,330,[],choice-response,Lap,618f9adba4bd53a30fa816db,Lab3,1242,326,DiscriminationTrials
607affb9d112a7e23c03a96d,Group_FJ,0,52a990b3122680c5997bd313b7d6c0868bc4bd61a8a5bd9b06d3983cdcabd842,2825.66326212883,False,keypress,testRsp,724,[],choice-response,Lab,618f9adba4bd53a30fa816db,Lab8,1591,327,DiscriminationTrials
607affb9d112a7e23c03a96d,Group_FJ,0,52a990b3122680c5997bd313b7d6c0868bc4bd61a8a5bd9b06d3983cdcabd842,2825.66326212883,False,keypress,testRsp,367,[],choice-response,Lab,618f9adba4bd53a30fa816db,Lab5,1155,328,DiscriminationTrials
607affb9d112a7e23c03a96d,Group_FJ,0,52a990b3122680c5997bd313b7d6c0868bc4bd61a8a5bd9b06d3983cdcabd842,2825.66326212883,False,keypress,testRsp,742,[],choice-response,Lab,618f9adba4bd53a30fa816db,Lab2,1478,329,DiscriminationTrials
607affb9d112a7e23c03a96d,Group_FJ,0,52a990b3122680c5997bd313b7d6c0868bc4bd61a8a5bd9b06d3983cdcabd842,2825.66326212883,False,keypress,testRsp,2993,[],choice-response,Lab,618f9adba4bd53a30fa816db,Lab6,3788,330,DiscriminationTrials
607affb9d112a7e23c03a96d,Group_FJ,0,52a990b3122680c5997bd313b7d6c0868bc4bd61a8a5bd9b06d3983cdcabd842,2825.66326212883,False,keypress,testRsp,1113,[],choice-response,Lap,618f9adba4bd53a30fa816db,Lab7,1934,331,DiscriminationTrials
607affb9d112a7e23c03a96d,Group_FJ,0,52a990b3122680c5997bd313b7d6c0868bc4bd61a8a5bd9b06d3983cdcabd842,2825.66326212883,False,keypress,testRsp,579,[],choice-response,Lap,618f9adba4bd53a30fa816db,Lab2,1307,332,DiscriminationTrials
607affb9d112a7e23c03a96d,Group_FJ,0,52a990b3122680c5997bd313b7d6c0868bc4bd61a8a5bd9b06d3983cdcabd842,2825.66326212883,False,keypress,testRsp,520,[],choice-response,Lab,618f9adba4bd53a30fa816db,Lab5,1316,333,DiscriminationTrials
607affb9d112a7e23c03a96d,Group_FJ,0,52a990b3122680c5997bd313b7d6c0868bc4bd61a8a5bd9b06d3983cdcabd842,2825.66326212883,False,keypress,testRsp,488,[],choice-response,Lab,618f9adba4bd53a30fa816db,Lab7,1294,334,DiscriminationTrials
607affb9d112a7e23c03a96d,Group_FJ,0,52a990b3122680c5997bd313b7d6c0868bc4bd61a8a5bd9b06d3983cdcabd842,2825.66326212883,False,keypress,testRsp,335,[],choice-response,Lap,618f9adba4bd53a30fa816db,Lab1,1084,335,DiscriminationTrials
607affb9d112a7e23c03a96d,Group_FJ,0,52a990b3122680c5997bd313b7d6c0868bc4bd61a8a5bd9b06d3983cdcabd842,2825.66326212883,False,keypress,testRsp,360,[],choice-response,Lab,618f9adba4bd53a30fa816db,Lab8,1378,336,DiscriminationTrials
607affb9d112a7e23c03a96d,Group_FJ,0,52a990b3122680c5997bd313b7d6c0868bc4bd61a8a5bd9b06d3983cdcabd842,2825.66326212883,False,keypress,testRsp,428,[],choice-response,Lap,618f9adba4bd53a30fa816db,Lab4,1528,337,DiscriminationTrials
607affb9d112a7e23c03a96d,Group_FJ,0,52a990b3122680c5997bd313b7d6c0868bc4bd61a8a5bd9b06d3983cdcabd842,2825.66326212883,False,keypress,testRsp,854,[],choice-response,Lab,618f9adba4bd53a30fa816db,Lab3,2002,338,DiscriminationTrials
607affb9d112a7e23c03a96d,Group_FJ,0,52a990b3122680c5997bd313b7d6c0868bc4bd61a8a5bd9b06d3983cdcabd842,2825.66326212883,False,keypress,testRsp,568,[],choice-response,Lab,618f9adba4bd53a30fa816db,Lab6,1778,339,DiscriminationTrials
607affb9d112a7e23c03a96d,Group_FJ,0,52a990b3122680c5997bd313b7d6c0868bc4bd61a8a5bd9b06d3983cdcabd842,2825.66326212883,False,keypress,testRsp,689,[],choice-response,Lab,618f9adba4bd53a30fa816db,Lab7,1948,340,DiscriminationTrials
607affb9d112a7e23c03a96d,Group_FJ,0,52a990b3122680c5997bd313b7d6c0868bc4bd61a8a5bd9b06d3983cdcabd842,2825.66326212883,False,keypress,testRsp,1211,[],choice-response,Lab,618f9adba4bd53a30fa816db,Lab8,2098,341,DiscriminationTrials
607affb9d112a7e23c03a96d,Group_FJ,0,52a990b3122680c5997bd313b7d6c0868bc4bd61a8a5bd9b06d3983cdcabd842,2825.66326212883,False,keypress,testRsp,634,[],choice-response,Lap,618f9adba4bd53a30fa816db,Lab5,1808,342,DiscriminationTrials
607affb9d112a7e23c03a96d,Group_FJ,0,52a990b3122680c5997bd313b7d6c0868bc4bd61a8a5bd9b06d3983cdcabd842,2825.66326212883,False,keypress,testRsp,1802,[],choice-response,Lab,618f9adba4bd53a30fa816db,Lab6,2629,343,DiscriminationTrials
607affb9d112a7e23c03a96d,Group_FJ,0,52a990b3122680c5997bd313b7d6c0868bc4bd61a8a5bd9b06d3983cdcabd842,2825.66326212883,False,keypress,testRsp,1797,[],choice-response,Lap,618f9adba4bd53a30fa816db,Lab3,2553,344,DiscriminationTrials
607affb9d112a7e23c03a96d,Group_FJ,0,52a990b3122680c5997bd313b7d6c0868bc4bd61a8a5bd9b06d3983cdcabd842,2825.66326212883,False,keypress,testRsp,593,[],choice-response,Lab,618f9adba4bd53a30fa816db,Lab4,1333,345,DiscriminationTrials
607affb9d112a7e23c03a96d,Group_FJ,0,52a990b3122680c5997bd313b7d6c0868bc4bd61a8a5bd9b06d3983cdcabd842,2825.66326212883,False,keypress,testRsp,561,[],choice-response,Lap,618f9adba4bd53a30fa816db,Lab1,1592,346,DiscriminationTrials
607affb9d112a7e23c03a96d,Group_FJ,0,52a990b3122680c5997bd313b7d6c0868bc4bd61a8a5bd9b06d3983cdcabd842,2825.66326212883,False,keypress,testRsp,473,[],choice-response,Lap,618f9adba4bd53a30fa816db,Lab2,1490,347,DiscriminationTrials
607affb9d112a7e23c03a96d,Group_FJ,0,52a990b3122680c5997bd313b7d6c0868bc4bd61a8a5bd9b06d3983cdcabd842,2825.66326212883,False,keypress,testRsp,539,[],choice-response,Lab,618f9adba4bd53a30fa816db,Lab7,1363,348,DiscriminationTrials
607affb9d112a7e23c03a96d,Group_FJ,0,52a990b3122680c5997bd313b7d6c0868bc4bd61a8a5bd9b06d3983cdcabd842,2825.66326212883,False,keypress,testRsp,660,[],choice-response,Lab,618f9adba4bd53a30fa816db,Lab6,1492,349,DiscriminationTrials
607affb9d112a7e23c03a96d,Group_FJ,0,52a990b3122680c5997bd313b7d6c0868bc4bd61a8a5bd9b06d3983cdcabd842,2825.66326212883,False,keypress,testRsp,612,[],choice-response,Lab,618f9adba4bd53a30fa816db,Lab4,1398,350,DiscriminationTrials
607affb9d112a7e23c03a96d,Group_FJ,0,52a990b3122680c5997bd313b7d6c0868bc4bd61a8a5bd9b06d3983cdcabd842,2825.66326212883,False,keypress,testRsp,306,[],choice-response,Lap,618f9adba4bd53a30fa816db,Lab2,1054,351,DiscriminationTrials
607affb9d112a7e23c03a96d,Group_FJ,0,52a990b3122680c5997bd313b7d6c0868bc4bd61a8a5bd9b06d3983cdcabd842,2825.66326212883,False,keypress,testRsp,484,[],choice-response,Lab,618f9adba4bd53a30fa816db,Lab5,1279,352,DiscriminationTrials
607affb9d112a7e23c03a96d,Group_FJ,0,52a990b3122680c5997bd313b7d6c0868bc4bd61a8a5bd9b06d3983cdcabd842,2825.66326212883,False,keypress,testRsp,764,[],choice-response,Lap,618f9adba4bd53a30fa816db,Lab1,1494,353,DiscriminationTrials
607affb9d112a7e23c03a96d,Group_FJ,0,52a990b3122680c5997bd313b7d6c0868bc4bd61a8a5bd9b06d3983cdcabd842,2825.66326212883,False,keypress,testRsp,1477,[],choice-response,Lab,618f9adba4bd53a30fa816db,Lab8,2655,354,DiscriminationTrials
607affb9d112a7e23c03a96d,Group_FJ,0,52a990b3122680c5997bd313b7d6c0868bc4bd61a8a5bd9b06d3983cdcabd842,2825.66326212883,False,keypress,testRsp,1227,[],choice-response,Lab,618f9adba4bd53a30fa816db,Lab3,2511,355,DiscriminationTrials
607affb9d112a7e23c03a96d,Group_FJ,0,52a990b3122680c5997bd313b7d6c0868bc4bd61a8a5bd9b06d3983cdcabd842,2825.66326212883,False,keypress,testRsp,754,[],choice-response,Lab,618f9adba4bd53a30fa816db,Lab5,1917,356,DiscriminationTrials
607affb9d112a7e23c03a96d,Group_FJ,0,52a990b3122680c5997bd313b7d6c0868bc4bd61a8a5bd9b06d3983cdcabd842,2825.66326212883,False,keypress,testRsp,902,[],choice-response,Lab,618f9adba4bd53a30fa816db,Lab2,1981,357,DiscriminationTrials
607affb9d112a7e23c03a96d,Group_FJ,0,52a990b3122680c5997bd313b7d6c0868bc4bd61a8a5bd9b06d3983cdcabd842,2825.66326212883,False,keypress,testRsp,1716,[],choice-response,Lab,618f9adba4bd53a30fa816db,Lab4,2834,358,DiscriminationTrials
607affb9d112a7e23c03a96d,Group_FJ,0,52a990b3122680c5997bd313b7d6c0868bc4bd61a8a5bd9b06d3983cdcabd842,2825.66326212883,False,keypress,testRsp,1151,[],choice-response,Lab,618f9adba4bd53a30fa816db,Lab7,2407,359,DiscriminationTrials
607affb9d112a7e23c03a96d,Group_FJ,0,52a990b3122680c5997bd313b7d6c0868bc4bd61a8a5bd9b06d3983cdcabd842,2825.66326212883,False,keypress,testRsp,1069,[],choice-response,Lab,618f9adba4bd53a30fa816db,Lab3,1850,360,DiscriminationTrials
607affb9d112a7e23c03a96d,Group_FJ,0,52a990b3122680c5997bd313b7d6c0868bc4bd61a8a5bd9b06d3983cdcabd842,2825.66326212883,False,keypress,testRsp,426,[],choice-response,Lab,618f9adba4bd53a30fa816db,Lab6,1585,361,DiscriminationTrials
607affb9d112a7e23c03a96d,Group_FJ,0,52a990b3122680c5997bd313b7d6c0868bc4bd61a8a5bd9b06d3983cdcabd842,2825.66326212883,False,keypress,testRsp,399,[],choice-response,Lab,618f9adba4bd53a30fa816db,Lab8,1284,362,DiscriminationTrials
607affb9d112a7e23c03a96d,Group_FJ,0,52a990b3122680c5997bd313b7d6c0868bc4bd61a8a5bd9b06d3983cdcabd842,2825.66326212883,False,keypress,testRsp,306,[],choice-response,Lap,618f9adba4bd53a30fa816db,Lab1,1045,363,DiscriminationTrials
607affb9d112a7e23c03a96d,Group_FJ,0,52a990b3122680c5997bd313b7d6c0868bc4bd61a8a5bd9b06d3983cdcabd842,2825.66326212883,False,keypress,exampleRsp,1431,[],choice-response,Lab,618f9adba4bd53a30fa816db,ontime_Lab8,5000,364,example
607affb9d112a7e23c03a96d,Group_FJ,0,52a990b3122680c5997bd313b7d6c0868bc4bd61a8a5bd9b06d3983cdcabd842,2825.66326212883,False,keypress,exampleRsp,887,[],choice-response,Lap,618f9adba4bd53a30fa816db,ontime_Lab1,4083,365,example
607affb9d112a7e23c03a96d,Group_FJ,0,52a990b3122680c5997bd313b7d6c0868bc4bd61a8a5bd9b06d3983cdcabd842,2825.66326212883,False,keypress,exampleRsp,2714,[],choice-response,Lab,618f9adba4bd53a30fa816db,ontime_Lab1,5569,366,example
607affb9d112a7e23c03a96d,Group_FJ,0,52a990b3122680c5997bd313b7d6c0868bc4bd61a8a5bd9b06d3983cdcabd842,2825.66326212883,False,keypress,exampleRsp,3338,[],choice-response,Lab,618f9adba4bd53a30fa816db,ontime_Lab8,6855,367,example
607affb9d112a7e23c03a96d,Group_FJ,0,52a990b3122680c5997bd313b7d6c0868bc4bd61a8a5bd9b06d3983cdcabd842,2825.66326212883,False,keypress,testRsp,805,[],choice-response,Lab,618f9adba4bd53a30fa816db,ontime_Lab1,4491,368,maintaskTrials
607affb9d112a7e23c03a96d,Group_FJ,0,52a990b3122680c5997bd313b7d6c0868bc4bd61a8a5bd9b06d3983cdcabd842,2825.66326212883,False,keypress,testRsp,338,[],choice-response,Lab,618f9adba4bd53a30fa816db,late_Lab3,3546,369,maintaskTrials
607affb9d112a7e23c03a96d,Group_FJ,0,52a990b3122680c5997bd313b7d6c0868bc4bd61a8a5bd9b06d3983cdcabd842,2825.66326212883,False,keypress,testRsp,253,[],choice-response,Lab,618f9adba4bd53a30fa816db,ontime_Lab7,3573,370,maintaskTrials
607affb9d112a7e23c03a96d,Group_FJ,0,52a990b3122680c5997bd313b7d6c0868bc4bd61a8a5bd9b06d3983cdcabd842,2825.66326212883,False,keypress,testRsp,24,[],choice-response,Lap,618f9adba4bd53a30fa816db,early_Lab5,3579,371,maintaskTrials
607affb9d112a7e23c03a96d,Group_FJ,0,52a990b3122680c5997bd313b7d6c0868bc4bd61a8a5bd9b06d3983cdcabd842,2825.66326212883,False,keypress,testRsp,234,[],choice-response,Lab,618f9adba4bd53a30fa816db,late_Lab6,3885,372,maintaskTrials
607affb9d112a7e23c03a96d,Group_FJ,0,52a990b3122680c5997bd313b7d6c0868bc4bd61a8a5bd9b06d3983cdcabd842,2825.66326212883,False,keypress,testRsp,710,[],choice-response,Lap,618f9adba4bd53a30fa816db,ontime_Lab3,4062,373,maintaskTrials
607affb9d112a7e23c03a96d,Group_FJ,0,52a990b3122680c5997bd313b7d6c0868bc4bd61a8a5bd9b06d3983cdcabd842,2825.66326212883,False,keypress,testRsp,364,[],choice-response,Lab,618f9adba4bd53a30fa816db,ontime_Lab6,3905,374,maintaskTrials
607affb9d112a7e23c03a96d,Group_FJ,0,52a990b3122680c5997bd313b7d6c0868bc4bd61a8a5bd9b06d3983cdcabd842,2825.66326212883,False,keypress,testRsp,283,[],choice-response,Lab,618f9adba4bd53a30fa816db,late_Lab8,3568,375,maintaskTrials
607affb9d112a7e23c03a96d,Group_FJ,0,52a990b3122680c5997bd313b7d6c0868bc4bd61a8a5bd9b06d3983cdcabd842,2825.66326212883,False,keypress,testRsp,254,[],choice-response,Lab,618f9adba4bd53a30fa816db,late_Lab7,3820,376,maintaskTrials
607affb9d112a7e23c03a96d,Group_FJ,0,52a990b3122680c5997bd313b7d6c0868bc4bd61a8a5bd9b06d3983cdcabd842,2825.66326212883,False,keypress,testRsp,215,[],choice-response,Lab,618f9adba4bd53a30fa816db,ontime_Lab8,3381,377,maintaskTrials
607affb9d112a7e23c03a96d,Group_FJ,0,52a990b3122680c5997bd313b7d6c0868bc4bd61a8a5bd9b06d3983cdcabd842,2825.66326212883,False,keypress,testRsp,558,[],choice-response,Lap,618f9adba4bd53a30fa816db,early_Lab3,4004,378,maintaskTrials
607affb9d112a7e23c03a96d,Group_FJ,0,52a990b3122680c5997bd313b7d6c0868bc4bd61a8a5bd9b06d3983cdcabd842,2825.66326212883,False,keypress,testRsp,277,[],choice-response,Lab,618f9adba4bd53a30fa816db,early_Lab2,3752,379,maintaskTrials
607affb9d112a7e23c03a96d,Group_FJ,0,52a990b3122680c5997bd313b7d6c0868bc4bd61a8a5bd9b06d3983cdcabd842,2825.66326212883,False,keypress,testRsp,777,[],choice-response,Lab,618f9adba4bd53a30fa816db,ontime_Lab2,4560,380,maintaskTrials
607affb9d112a7e23c03a96d,Group_FJ,0,52a990b3122680c5997bd313b7d6c0868bc4bd61a8a5bd9b06d3983cdcabd842,2825.66326212883,False,keypress,testRsp,466,[],choice-response,Lab,618f9adba4bd53a30fa816db,late_Lab4,5014,381,maintaskTrials
607affb9d112a7e23c03a96d,Group_FJ,0,52a990b3122680c5997bd313b7d6c0868bc4bd61a8a5bd9b06d3983cdcabd842,2825.66326212883,False,keypress,testRsp,406,[],choice-response,Lap,618f9adba4bd53a30fa816db,early_Lab1,3669,382,maintaskTrials
607affb9d112a7e23c03a96d,Group_FJ,0,52a990b3122680c5997bd313b7d6c0868bc4bd61a8a5bd9b06d3983cdcabd842,2825.66326212883,False,keypress,testRsp,380,[],choice-response,Lab,618f9adba4bd53a30fa816db,early_Lab7,3926,383,maintaskTrials
607affb9d112a7e23c03a96d,Group_FJ,0,52a990b3122680c5997bd313b7d6c0868bc4bd61a8a5bd9b06d3983cdcabd842,2825.66326212883,False,keypress,testRsp,471,[],choice-response,Lab,618f9adba4bd53a30fa816db,ontime_Lab4,4148,384,maintaskTrials
607affb9d112a7e23c03a96d,Group_FJ,0,52a990b3122680c5997bd313b7d6c0868bc4bd61a8a5bd9b06d3983cdcabd842,2825.66326212883,False,keypress,testRsp,425,[],choice-response,Lab,618f9adba4bd53a30fa816db,early_Lab6,3677,385,maintaskTrials
607affb9d112a7e23c03a96d,Group_FJ,0,52a990b3122680c5997bd313b7d6c0868bc4bd61a8a5bd9b06d3983cdcabd842,2825.66326212883,False,keypress,testRsp,537,[],choice-response,Lab,618f9adba4bd53a30fa816db,early_Lab8,3958,386,maintaskTrials
607affb9d112a7e23c03a96d,Group_FJ,0,52a990b3122680c5997bd313b7d6c0868bc4bd61a8a5bd9b06d3983cdcabd842,2825.66326212883,False,keypress,testRsp,546,[],choice-response,Lap,618f9adba4bd53a30fa816db,late_Lab2,3774,387,maintaskTrials
607affb9d112a7e23c03a96d,Group_FJ,0,52a990b3122680c5997bd313b7d6c0868bc4bd61a8a5bd9b06d3983cdcabd842,2825.66326212883,True,keypress,cat_catchRsp,3982,['Cat meowing'],choice-response,Cat meowing,618f9adba4bd53a30fa816db,cat_meowing,7308,388,Catch_cat
607affb9d112a7e23c03a96d,Group_FJ,0,52a990b3122680c5997bd313b7d6c0868bc4bd61a8a5bd9b06d3983cdcabd842,2825.66326212883,False,keypress,testRsp,808,[],choice-response,Lab,618f9adba4bd53a30fa816db,ontime_Lab5,3970,389,maintaskTrials
607affb9d112a7e23c03a96d,Group_FJ,0,52a990b3122680c5997bd313b7d6c0868bc4bd61a8a5bd9b06d3983cdcabd842,2825.66326212883,False,keypress,testRsp,609,[],choice-response,Lap,618f9adba4bd53a30fa816db,late_Lab5,4217,390,maintaskTrials
607affb9d112a7e23c03a96d,Group_FJ,0,52a990b3122680c5997bd313b7d6c0868bc4bd61a8a5bd9b06d3983cdcabd842,2825.66326212883,False,keypress,testRsp,385,[],choice-response,Lab,618f9adba4bd53a30fa816db,early_Lab4,3629,391,maintaskTrials
607affb9d112a7e23c03a96d,Group_FJ,0,52a990b3122680c5997bd313b7d6c0868bc4bd61a8a5bd9b06d3983cdcabd842,2825.66326212883,False,keypress,testRsp,297,[],choice-response,Lap,618f9adba4bd53a30fa816db,late_Lab1,3446,392,maintaskTrials
607affb9d112a7e23c03a96d,Group_FJ,0,52a990b3122680c5997bd313b7d6c0868bc4bd61a8a5bd9b06d3983cdcabd842,2825.66326212883,False,keypress,testRsp,572,[],choice-response,Lab,618f9adba4bd53a30fa816db,ontime_Lab4,3987,393,maintaskTrials
607affb9d112a7e23c03a96d,Group_FJ,0,52a990b3122680c5997bd313b7d6c0868bc4bd61a8a5bd9b06d3983cdcabd842,2825.66326212883,False,keypress,testRsp,278,[],choice-response,Lab,618f9adba4bd53a30fa816db,ontime_Lab7,3909,394,maintaskTrials
607affb9d112a7e23c03a96d,Group_FJ,0,52a990b3122680c5997bd313b7d6c0868bc4bd61a8a5bd9b06d3983cdcabd842,2825.66326212883,False,keypress,testRsp,295,[],choice-response,Lap,618f9adba4bd53a30fa816db,ontime_Lab3,3685,395,maintaskTrials
607affb9d112a7e23c03a96d,Group_FJ,0,52a990b3122680c5997bd313b7d6c0868bc4bd61a8a5bd9b06d3983cdcabd842,2825.66326212883,False,keypress,testRsp,186,[],choice-response,Lab,618f9adba4bd53a30fa816db,early_Lab6,3663,396,maintaskTrials
607affb9d112a7e23c03a96d,Group_FJ,0,52a990b3122680c5997bd313b7d6c0868bc4bd61a8a5bd9b06d3983cdcabd842,2825.66326212883,False,keypress,testRsp,247,[],choice-response,Lap,618f9adba4bd53a30fa816db,early_Lab1,3400,397,maintaskTrials
607affb9d112a7e23c03a96d,Group_FJ,0,52a990b3122680c5997bd313b7d6c0868bc4bd61a8a5bd9b06d3983cdcabd842,2825.66326212883,False,keypress,testRsp,138,[],choice-response,Lap,618f9adba4bd53a30fa816db,early_Lab3,3644,398,maintaskTrials
607affb9d112a7e23c03a96d,Group_FJ,0,52a990b3122680c5997bd313b7d6c0868bc4bd61a8a5bd9b06d3983cdcabd842,2825.66326212883,False,keypress,testRsp,334,[],choice-response,Lab,618f9adba4bd53a30fa816db,late_Lab4,3617,399,maintaskTrials
607affb9d112a7e23c03a96d,Group_FJ,0,52a990b3122680c5997bd313b7d6c0868bc4bd61a8a5bd9b06d3983cdcabd842,2825.66326212883,False,keypress,testRsp,355,[],choice-response,Lab,618f9adba4bd53a30fa816db,late_Lab7,4050,400,maintaskTrials
607affb9d112a7e23c03a96d,Group_FJ,0,52a990b3122680c5997bd313b7d6c0868bc4bd61a8a5bd9b06d3983cdcabd842,2825.66326212883,False,keypress,testRsp,421,[],choice-response,Lab,618f9adba4bd53a30fa816db,ontime_Lab5,3991,401,maintaskTrials
607affb9d112a7e23c03a96d,Group_FJ,0,52a990b3122680c5997bd313b7d6c0868bc4bd61a8a5bd9b06d3983cdcabd842,2825.66326212883,False,keypress,testRsp,376,[],choice-response,Lab,618f9adba4bd53a30fa816db,late_Lab6,3740,402,maintaskTrials
607affb9d112a7e23c03a96d,Group_FJ,0,52a990b3122680c5997bd313b7d6c0868bc4bd61a8a5bd9b06d3983cdcabd842,2825.66326212883,False,keypress,testRsp,352,[],choice-response,Lap,618f9adba4bd53a30fa816db,ontime_Lab2,3639,403,maintaskTrials
607affb9d112a7e23c03a96d,Group_FJ,0,52a990b3122680c5997bd313b7d6c0868bc4bd61a8a5bd9b06d3983cdcabd842,2825.66326212883,False,keypress,testRsp,387,[],choice-response,Lap,618f9adba4bd53a30fa816db,late_Lab1,3665,404,maintaskTrials
607affb9d112a7e23c03a96d,Group_FJ,0,52a990b3122680c5997bd313b7d6c0868bc4bd61a8a5bd9b06d3983cdcabd842,2825.66326212883,False,keypress,testRsp,274,[],choice-response,Lab,618f9adba4bd53a30fa816db,ontime_Lab6,3591,405,maintaskTrials
607affb9d112a7e23c03a96d,Group_FJ,0,52a990b3122680c5997bd313b7d6c0868bc4bd61a8a5bd9b06d3983cdcabd842,2825.66326212883,False,keypress,testRsp,534,[],choice-response,Lap,618f9adba4bd53a30fa816db,early_Lab2,3621,406,maintaskTrials
607affb9d112a7e23c03a96d,Group_FJ,0,52a990b3122680c5997bd313b7d6c0868bc4bd61a8a5bd9b06d3983cdcabd842,2825.66326212883,False,keypress,testRsp,406,[],choice-response,Lab,618f9adba4bd53a30fa816db,early_Lab7,3684,407,maintaskTrials
607affb9d112a7e23c03a96d,Group_FJ,0,52a990b3122680c5997bd313b7d6c0868bc4bd61a8a5bd9b06d3983cdcabd842,2825.66326212883,False,keypress,testRsp,278,[],choice-response,Lab,618f9adba4bd53a30fa816db,early_Lab8,3610,408,maintaskTrials
607affb9d112a7e23c03a96d,Group_FJ,0,52a990b3122680c5997bd313b7d6c0868bc4bd61a8a5bd9b06d3983cdcabd842,2825.66326212883,False,keypress,cat_catchRsp,3406,['Cat meowing'],choice-response,Dog barking,618f9adba4bd53a30fa816db,cat_meowing,6602,409,Catch_cat
607affb9d112a7e23c03a96d,Group_FJ,0,52a990b3122680c5997bd313b7d6c0868bc4bd61a8a5bd9b06d3983cdcabd842,2825.66326212883,False,keypress,testRsp,949,[],choice-response,Lap,618f9adba4bd53a30fa816db,early_Lab5,4295,410,maintaskTrials
607affb9d112a7e23c03a96d,Group_FJ,0,52a990b3122680c5997bd313b7d6c0868bc4bd61a8a5bd9b06d3983cdcabd842,2825.66326212883,False,keypress,testRsp,1676,[],choice-response,Lab,618f9adba4bd53a30fa816db,late_Lab8,4958,411,maintaskTrials
607affb9d112a7e23c03a96d,Group_FJ,0,52a990b3122680c5997bd313b7d6c0868bc4bd61a8a5bd9b06d3983cdcabd842,2825.66326212883,False,keypress,testRsp,697,[],choice-response,Lab,618f9adba4bd53a30fa816db,late_Lab5,3929,412,maintaskTrials
607affb9d112a7e23c03a96d,Group_FJ,0,52a990b3122680c5997bd313b7d6c0868bc4bd61a8a5bd9b06d3983cdcabd842,2825.66326212883,False,keypress,testRsp,1323,[],choice-response,Lap,618f9adba4bd53a30fa816db,late_Lab3,4470,413,maintaskTrials
607affb9d112a7e23c03a96d,Group_FJ,0,52a990b3122680c5997bd313b7d6c0868bc4bd61a8a5bd9b06d3983cdcabd842,2825.66326212883,False,keypress,testRsp,759,[],choice-response,Lab,618f9adba4bd53a30fa816db,early_Lab4,3966,414,maintaskTrials
607affb9d112a7e23c03a96d,Group_FJ,0,52a990b3122680c5997bd313b7d6c0868bc4bd61a8a5bd9b06d3983cdcabd842,2825.66326212883,False,keypress,testRsp,519,[],choice-response,Lap,618f9adba4bd53a30fa816db,ontime_Lab1,3993,415,maintaskTrials
607affb9d112a7e23c03a96d,Group_FJ,0,52a990b3122680c5997bd313b7d6c0868bc4bd61a8a5bd9b06d3983cdcabd842,2825.66326212883,False,keypress,testRsp,822,[],choice-response,Lap,618f9adba4bd53a30fa816db,late_Lab2,4177,416,maintaskTrials
607affb9d112a7e23c03a96d,Group_FJ,0,52a990b3122680c5997bd313b7d6c0868bc4bd61a8a5bd9b06d3983cdcabd842,2825.66326212883,False,keypress,testRsp,222,[],choice-response,Lab,618f9adba4bd53a30fa816db,ontime_Lab8,3494,417,maintaskTrials
607affb9d112a7e23c03a96d,Group_FJ,0,52a990b3122680c5997bd313b7d6c0868bc4bd61a8a5bd9b06d3983cdcabd842,2825.66326212883,False,keypress,testRsp,369,[],choice-response,Lab,618f9adba4bd53a30fa816db,late_Lab4,3506,418,maintaskTrials
607affb9d112a7e23c03a96d,Group_FJ,0,52a990b3122680c5997bd313b7d6c0868bc4bd61a8a5bd9b06d3983cdcabd842,2825.66326212883,False,keypress,testRsp,644,[],choice-response,Lap,618f9adba4bd53a30fa816db,ontime_Lab7,3900,419,maintaskTrials
607affb9d112a7e23c03a96d,Group_FJ,0,52a990b3122680c5997bd313b7d6c0868bc4bd61a8a5bd9b06d3983cdcabd842,2825.66326212883,False,keypress,testRsp,709,[],choice-response,Lab,618f9adba4bd53a30fa816db,late_Lab7,4004,420,maintaskTrials
607affb9d112a7e23c03a96d,Group_FJ,0,52a990b3122680c5997bd313b7d6c0868bc4bd61a8a5bd9b06d3983cdcabd842,2825.66326212883,False,keypress,testRsp,493,[],choice-response,Lap,618f9adba4bd53a30fa816db,ontime_Lab3,3816,421,maintaskTrials
607affb9d112a7e23c03a96d,Group_FJ,0,52a990b3122680c5997bd313b7d6c0868bc4bd61a8a5bd9b06d3983cdcabd842,2825.66326212883,False,keypress,testRsp,831,[],choice-response,Lab,618f9adba4bd53a30fa816db,early_Lab5,4162,422,maintaskTrials
607affb9d112a7e23c03a96d,Group_FJ,0,52a990b3122680c5997bd313b7d6c0868bc4bd61a8a5bd9b06d3983cdcabd842,2825.66326212883,False,keypress,testRsp,398,[],choice-response,Lab,618f9adba4bd53a30fa816db,early_Lab6,4000,423,maintaskTrials
607affb9d112a7e23c03a96d,Group_FJ,0,52a990b3122680c5997bd313b7d6c0868bc4bd61a8a5bd9b06d3983cdcabd842,2825.66326212883,False,keypress,testRsp,442,[],choice-response,Lap,618f9adba4bd53a30fa816db,ontime_Lab2,4403,424,maintaskTrials
607affb9d112a7e23c03a96d,Group_FJ,0,52a990b3122680c5997bd313b7d6c0868bc4bd61a8a5bd9b06d3983cdcabd842,2825.66326212883,False,keypress,testRsp,394,[],choice-response,Lab,618f9adba4bd53a30fa816db,late_Lab8,3756,425,maintaskTrials
607affb9d112a7e23c03a96d,Group_FJ,0,52a990b3122680c5997bd313b7d6c0868bc4bd61a8a5bd9b06d3983cdcabd842,2825.66326212883,False,keypress,testRsp,1474,[],choice-response,Lap,618f9adba4bd53a30fa816db,late_Lab2,4588,426,maintaskTrials
607affb9d112a7e23c03a96d,Group_FJ,0,52a990b3122680c5997bd313b7d6c0868bc4bd61a8a5bd9b06d3983cdcabd842,2825.66326212883,False,keypress,testRsp,847,[],choice-response,Lab,618f9adba4bd53a30fa816db,early_Lab8,4541,427,maintaskTrials
607affb9d112a7e23c03a96d,Group_FJ,0,52a990b3122680c5997bd313b7d6c0868bc4bd61a8a5bd9b06d3983cdcabd842,2825.66326212883,False,keypress,testRsp,1215,[],choice-response,Lap,618f9adba4bd53a30fa816db,early_Lab2,4449,428,maintaskTrials
607affb9d112a7e23c03a96d,Group_FJ,0,52a990b3122680c5997bd313b7d6c0868bc4bd61a8a5bd9b06d3983cdcabd842,2825.66326212883,False,keypress,testRsp,1164,[],choice-response,Lab,618f9adba4bd53a30fa816db,early_Lab3,4410,429,maintaskTrials
607affb9d112a7e23c03a96d,Group_FJ,0,52a990b3122680c5997bd313b7d6c0868bc4bd61a8a5bd9b06d3983cdcabd842,2825.66326212883,True,keypress,cat_catchRsp,4872,['Cat meowing'],choice-response,Cat meowing,618f9adba4bd53a30fa816db,cat_meowing,7683,430,Catch_cat
607affb9d112a7e23c03a96d,Group_FJ,0,52a990b3122680c5997bd313b7d6c0868bc4bd61a8a5bd9b06d3983cdcabd842,2825.66326212883,False,keypress,testRsp,1403,[],choice-response,Lab,618f9adba4bd53a30fa816db,late_Lab5,4649,431,maintaskTrials
