expt_id,group_id,network_error_repeat,participant_id,participation_duration,response_correct,response_mode,response_name,response_rt,response_target,response_type,response_value,session_id,stimuli_presented,trial_duration,trial_num,trial_template
607affb9d112a7e23c03a96d,Group_FJ,0,303f5f131605b1a0e8cf965fa61221cdf4aad5fe9695d1dea3dc82422cf74458,2615.1291370391846,False,click,survey_noise,4347,[],choice-response,2,617b99111dff2d27ea3d3ef3,logistics_noise,6448,1,logisticsQuestionnaire
607affb9d112a7e23c03a96d,Group_FJ,0,303f5f131605b1a0e8cf965fa61221cdf4aad5fe9695d1dea3dc82422cf74458,2615.1291370391846,False,click,survey_headphone1,6778,[],choice-response,Yes,617b99111dff2d27ea3d3ef3,logistic_headphone1,8250,2,logisticsQuestionnaire
607affb9d112a7e23c03a96d,Group_FJ,0,303f5f131605b1a0e8cf965fa61221cdf4aad5fe9695d1dea3dc82422cf74458,2615.1291370391846,False,click,survey_headphone2,5240,[],choice-response,Wired Earbuds,617b99111dff2d27ea3d3ef3,logistic_headphone2,9291,3,logisticsQuestionnaire
607affb9d112a7e23c03a96d,Group_FJ,0,303f5f131605b1a0e8cf965fa61221cdf4aad5fe9695d1dea3dc82422cf74458,2615.1291370391846,False,keypress,prescreenRsp_laglack,5565,[],choice-response,Lag,617b99111dff2d27ea3d3ef3,Lag,6670,4,PrescreenTrials
607affb9d112a7e23c03a96d,Group_FJ,0,303f5f131605b1a0e8cf965fa61221cdf4aad5fe9695d1dea3dc82422cf74458,2615.1291370391846,False,keypress,prescreenRsp_cabcap,1050,[],choice-response,Cap,617b99111dff2d27ea3d3ef3,Cap,1845,5,PrescreenTrials
607affb9d112a7e23c03a96d,Group_FJ,0,303f5f131605b1a0e8cf965fa61221cdf4aad5fe9695d1dea3dc82422cf74458,2615.1291370391846,False,keypress,prescreenRsp_fadfat,925,[],choice-response,Fat,617b99111dff2d27ea3d3ef3,Fat,1869,6,PrescreenTrials
607affb9d112a7e23c03a96d,Group_FJ,0,303f5f131605b1a0e8cf965fa61221cdf4aad5fe9695d1dea3dc82422cf74458,2615.1291370391846,False,keypress,prescreenRsp_beadbeat,1842,[],choice-response,Bead,617b99111dff2d27ea3d3ef3,Bead,2969,7,PrescreenTrials
607affb9d112a7e23c03a96d,Group_FJ,0,303f5f131605b1a0e8cf965fa61221cdf4aad5fe9695d1dea3dc82422cf74458,2615.1291370391846,False,keypress,prescreenRsp_laglack,2089,[],choice-response,Lack,617b99111dff2d27ea3d3ef3,Lack,3102,8,PrescreenTrials
607affb9d112a7e23c03a96d,Group_FJ,0,303f5f131605b1a0e8cf965fa61221cdf4aad5fe9695d1dea3dc82422cf74458,2615.1291370391846,False,keypress,prescreenRsp_beadbeat,1221,[],choice-response,Beat,617b99111dff2d27ea3d3ef3,Beat,2177,9,PrescreenTrials
607affb9d112a7e23c03a96d,Group_FJ,0,303f5f131605b1a0e8cf965fa61221cdf4aad5fe9695d1dea3dc82422cf74458,2615.1291370391846,False,keypress,prescreenRsp_cabcap,933,[],choice-response,Cab,617b99111dff2d27ea3d3ef3,Cab,2126,10,PrescreenTrials
607affb9d112a7e23c03a96d,Group_FJ,0,303f5f131605b1a0e8cf965fa61221cdf4aad5fe9695d1dea3dc82422cf74458,2615.1291370391846,False,keypress,prescreenRsp_bagback,926,[],choice-response,Bag,617b99111dff2d27ea3d3ef3,Bag,2051,11,PrescreenTrials
607affb9d112a7e23c03a96d,Group_FJ,0,303f5f131605b1a0e8cf965fa61221cdf4aad5fe9695d1dea3dc82422cf74458,2615.1291370391846,False,keypress,prescreenRsp_bagback,889,[],choice-response,Back,617b99111dff2d27ea3d3ef3,Back,1811,12,PrescreenTrials
607affb9d112a7e23c03a96d,Group_FJ,0,303f5f131605b1a0e8cf965fa61221cdf4aad5fe9695d1dea3dc82422cf74458,2615.1291370391846,False,keypress,prescreenRsp_lablap,1342,[],choice-response,Lab,617b99111dff2d27ea3d3ef3,Lab,2321,13,PrescreenTrials
607affb9d112a7e23c03a96d,Group_FJ,0,303f5f131605b1a0e8cf965fa61221cdf4aad5fe9695d1dea3dc82422cf74458,2615.1291370391846,False,keypress,prescreenRsp_fadfat,861,[],choice-response,Fad,617b99111dff2d27ea3d3ef3,Fad,2252,14,PrescreenTrials
607affb9d112a7e23c03a96d,Group_FJ,0,303f5f131605b1a0e8cf965fa61221cdf4aad5fe9695d1dea3dc82422cf74458,2615.1291370391846,False,keypress,prescreenRsp_lablap,863,[],choice-response,Lap,617b99111dff2d27ea3d3ef3,Lap,1656,15,PrescreenTrials
607affb9d112a7e23c03a96d,Group_FJ,0,303f5f131605b1a0e8cf965fa61221cdf4aad5fe9695d1dea3dc82422cf74458,2615.1291370391846,False,keypress,prescreenRsp_laglack,1255,[],choice-response,Lack,617b99111dff2d27ea3d3ef3,Lack,2021,16,PrescreenTrials
607affb9d112a7e23c03a96d,Group_FJ,0,303f5f131605b1a0e8cf965fa61221cdf4aad5fe9695d1dea3dc82422cf74458,2615.1291370391846,False,keypress,prescreenRsp_beadbeat,577,[],choice-response,Beat,617b99111dff2d27ea3d3ef3,Beat,1367,17,PrescreenTrials
607affb9d112a7e23c03a96d,Group_FJ,0,303f5f131605b1a0e8cf965fa61221cdf4aad5fe9695d1dea3dc82422cf74458,2615.1291370391846,False,keypress,prescreenRsp_cabcap,1021,[],choice-response,Cap,617b99111dff2d27ea3d3ef3,Cap,2008,18,PrescreenTrials
607affb9d112a7e23c03a96d,Group_FJ,0,303f5f131605b1a0e8cf965fa61221cdf4aad5fe9695d1dea3dc82422cf74458,2615.1291370391846,False,keypress,prescreenRsp_lablap,2170,[],choice-response,Lap,617b99111dff2d27ea3d3ef3,Lap,2812,19,PrescreenTrials
607affb9d112a7e23c03a96d,Group_FJ,0,303f5f131605b1a0e8cf965fa61221cdf4aad5fe9695d1dea3dc82422cf74458,2615.1291370391846,False,keypress,prescreenRsp_fadfat,983,[],choice-response,Fad,617b99111dff2d27ea3d3ef3,Fat,1927,20,PrescreenTrials
607affb9d112a7e23c03a96d,Group_FJ,0,303f5f131605b1a0e8cf965fa61221cdf4aad5fe9695d1dea3dc82422cf74458,2615.1291370391846,False,keypress,prescreenRsp_fadfat,545,[],choice-response,Fad,617b99111dff2d27ea3d3ef3,Fad,1845,21,PrescreenTrials
607affb9d112a7e23c03a96d,Group_FJ,0,303f5f131605b1a0e8cf965fa61221cdf4aad5fe9695d1dea3dc82422cf74458,2615.1291370391846,False,keypress,prescreenRsp_bagback,844,[],choice-response,Bag,617b99111dff2d27ea3d3ef3,Bag,2008,22,PrescreenTrials
607affb9d112a7e23c03a96d,Group_FJ,0,303f5f131605b1a0e8cf965fa61221cdf4aad5fe9695d1dea3dc82422cf74458,2615.1291370391846,False,keypress,prescreenRsp_beadbeat,677,[],choice-response,Bead,617b99111dff2d27ea3d3ef3,Bead,1721,23,PrescreenTrials
607affb9d112a7e23c03a96d,Group_FJ,0,303f5f131605b1a0e8cf965fa61221cdf4aad5fe9695d1dea3dc82422cf74458,2615.1291370391846,False,keypress,prescreenRsp_laglack,1732,[],choice-response,Lag,617b99111dff2d27ea3d3ef3,Lag,2936,24,PrescreenTrials
607affb9d112a7e23c03a96d,Group_FJ,0,303f5f131605b1a0e8cf965fa61221cdf4aad5fe9695d1dea3dc82422cf74458,2615.1291370391846,False,keypress,prescreenRsp_lablap,1474,[],choice-response,Lap,617b99111dff2d27ea3d3ef3,Lab,2489,25,PrescreenTrials
607affb9d112a7e23c03a96d,Group_FJ,0,303f5f131605b1a0e8cf965fa61221cdf4aad5fe9695d1dea3dc82422cf74458,2615.1291370391846,False,keypress,prescreenRsp_cabcap,1216,[],choice-response,Cab,617b99111dff2d27ea3d3ef3,Cab,2322,26,PrescreenTrials
607affb9d112a7e23c03a96d,Group_FJ,0,303f5f131605b1a0e8cf965fa61221cdf4aad5fe9695d1dea3dc82422cf74458,2615.1291370391846,False,keypress,prescreenRsp_bagback,1957,[],choice-response,Back,617b99111dff2d27ea3d3ef3,Back,2691,27,PrescreenTrials
607affb9d112a7e23c03a96d,Group_FJ,0,303f5f131605b1a0e8cf965fa61221cdf4aad5fe9695d1dea3dc82422cf74458,2615.1291370391846,False,keypress,prescreenRsp_bagback,910,[],choice-response,Back,617b99111dff2d27ea3d3ef3,Back,1556,28,PrescreenTrials
607affb9d112a7e23c03a96d,Group_FJ,0,303f5f131605b1a0e8cf965fa61221cdf4aad5fe9695d1dea3dc82422cf74458,2615.1291370391846,False,keypress,prescreenRsp_cabcap,688,[],choice-response,Cap,617b99111dff2d27ea3d3ef3,Cap,1708,29,PrescreenTrials
607affb9d112a7e23c03a96d,Group_FJ,0,303f5f131605b1a0e8cf965fa61221cdf4aad5fe9695d1dea3dc82422cf74458,2615.1291370391846,False,keypress,prescreenRsp_lablap,715,[],choice-response,Lap,617b99111dff2d27ea3d3ef3,Lap,1684,30,PrescreenTrials
607affb9d112a7e23c03a96d,Group_FJ,0,303f5f131605b1a0e8cf965fa61221cdf4aad5fe9695d1dea3dc82422cf74458,2615.1291370391846,False,keypress,prescreenRsp_beadbeat,711,[],choice-response,Bead,617b99111dff2d27ea3d3ef3,Bead,1724,31,PrescreenTrials
607affb9d112a7e23c03a96d,Group_FJ,0,303f5f131605b1a0e8cf965fa61221cdf4aad5fe9695d1dea3dc82422cf74458,2615.1291370391846,False,keypress,prescreenRsp_beadbeat,706,[],choice-response,Beat,617b99111dff2d27ea3d3ef3,Beat,1571,32,PrescreenTrials
607affb9d112a7e23c03a96d,Group_FJ,0,303f5f131605b1a0e8cf965fa61221cdf4aad5fe9695d1dea3dc82422cf74458,2615.1291370391846,False,keypress,prescreenRsp_laglack,1103,[],choice-response,Lag,617b99111dff2d27ea3d3ef3,Lag,2117,33,PrescreenTrials
607affb9d112a7e23c03a96d,Group_FJ,0,303f5f131605b1a0e8cf965fa61221cdf4aad5fe9695d1dea3dc82422cf74458,2615.1291370391846,False,keypress,prescreenRsp_fadfat,1034,[],choice-response,Fad,617b99111dff2d27ea3d3ef3,Fad,2422,34,PrescreenTrials
607affb9d112a7e23c03a96d,Group_FJ,0,303f5f131605b1a0e8cf965fa61221cdf4aad5fe9695d1dea3dc82422cf74458,2615.1291370391846,False,keypress,prescreenRsp_lablap,858,[],choice-response,Lap,617b99111dff2d27ea3d3ef3,Lab,1870,35,PrescreenTrials
607affb9d112a7e23c03a96d,Group_FJ,0,303f5f131605b1a0e8cf965fa61221cdf4aad5fe9695d1dea3dc82422cf74458,2615.1291370391846,False,keypress,prescreenRsp_laglack,977,[],choice-response,Lack,617b99111dff2d27ea3d3ef3,Lack,1870,36,PrescreenTrials
607affb9d112a7e23c03a96d,Group_FJ,0,303f5f131605b1a0e8cf965fa61221cdf4aad5fe9695d1dea3dc82422cf74458,2615.1291370391846,False,keypress,prescreenRsp_bagback,1453,[],choice-response,Bag,617b99111dff2d27ea3d3ef3,Bag,2386,37,PrescreenTrials
607affb9d112a7e23c03a96d,Group_FJ,0,303f5f131605b1a0e8cf965fa61221cdf4aad5fe9695d1dea3dc82422cf74458,2615.1291370391846,False,keypress,prescreenRsp_fadfat,807,[],choice-response,Fat,617b99111dff2d27ea3d3ef3,Fat,1914,38,PrescreenTrials
607affb9d112a7e23c03a96d,Group_FJ,0,303f5f131605b1a0e8cf965fa61221cdf4aad5fe9695d1dea3dc82422cf74458,2615.1291370391846,False,keypress,prescreenRsp_cabcap,1021,[],choice-response,Cap,617b99111dff2d27ea3d3ef3,Cab,2156,39,PrescreenTrials
607affb9d112a7e23c03a96d,Group_FJ,0,303f5f131605b1a0e8cf965fa61221cdf4aad5fe9695d1dea3dc82422cf74458,2615.1291370391846,False,keypress,prescreenRsp_laglack,926,[],choice-response,Lack,617b99111dff2d27ea3d3ef3,Lack,1804,40,PrescreenTrials
607affb9d112a7e23c03a96d,Group_FJ,0,303f5f131605b1a0e8cf965fa61221cdf4aad5fe9695d1dea3dc82422cf74458,2615.1291370391846,False,keypress,prescreenRsp_cabcap,576,[],choice-response,Cap,617b99111dff2d27ea3d3ef3,Cap,2276,41,PrescreenTrials
607affb9d112a7e23c03a96d,Group_FJ,0,303f5f131605b1a0e8cf965fa61221cdf4aad5fe9695d1dea3dc82422cf74458,2615.1291370391846,False,keypress,prescreenRsp_lablap,2491,[],choice-response,Lab,617b99111dff2d27ea3d3ef3,Lab,3747,42,PrescreenTrials
607affb9d112a7e23c03a96d,Group_FJ,0,303f5f131605b1a0e8cf965fa61221cdf4aad5fe9695d1dea3dc82422cf74458,2615.1291370391846,False,keypress,prescreenRsp_fadfat,632,[],choice-response,Fat,617b99111dff2d27ea3d3ef3,Fat,1570,43,PrescreenTrials
607affb9d112a7e23c03a96d,Group_FJ,0,303f5f131605b1a0e8cf965fa61221cdf4aad5fe9695d1dea3dc82422cf74458,2615.1291370391846,False,keypress,prescreenRsp_fadfat,742,[],choice-response,Fad,617b99111dff2d27ea3d3ef3,Fad,2129,44,PrescreenTrials
607affb9d112a7e23c03a96d,Group_FJ,0,303f5f131605b1a0e8cf965fa61221cdf4aad5fe9695d1dea3dc82422cf74458,2615.1291370391846,False,keypress,prescreenRsp_beadbeat,567,[],choice-response,Bead,617b99111dff2d27ea3d3ef3,Bead,1750,45,PrescreenTrials
607affb9d112a7e23c03a96d,Group_FJ,0,303f5f131605b1a0e8cf965fa61221cdf4aad5fe9695d1dea3dc82422cf74458,2615.1291370391846,False,keypress,prescreenRsp_bagback,922,[],choice-response,Bag,617b99111dff2d27ea3d3ef3,Bag,1861,46,PrescreenTrials
607affb9d112a7e23c03a96d,Group_FJ,0,303f5f131605b1a0e8cf965fa61221cdf4aad5fe9695d1dea3dc82422cf74458,2615.1291370391846,False,keypress,prescreenRsp_bagback,1049,[],choice-response,Back,617b99111dff2d27ea3d3ef3,Back,1897,47,PrescreenTrials
607affb9d112a7e23c03a96d,Group_FJ,0,303f5f131605b1a0e8cf965fa61221cdf4aad5fe9695d1dea3dc82422cf74458,2615.1291370391846,False,keypress,prescreenRsp_lablap,629,[],choice-response,Lap,617b99111dff2d27ea3d3ef3,Lap,1424,48,PrescreenTrials
607affb9d112a7e23c03a96d,Group_FJ,0,303f5f131605b1a0e8cf965fa61221cdf4aad5fe9695d1dea3dc82422cf74458,2615.1291370391846,False,keypress,prescreenRsp_laglack,704,[],choice-response,Lag,617b99111dff2d27ea3d3ef3,Lag,1881,49,PrescreenTrials
607affb9d112a7e23c03a96d,Group_FJ,0,303f5f131605b1a0e8cf965fa61221cdf4aad5fe9695d1dea3dc82422cf74458,2615.1291370391846,False,keypress,prescreenRsp_beadbeat,1207,[],choice-response,Bead,617b99111dff2d27ea3d3ef3,Beat,2278,50,PrescreenTrials
607affb9d112a7e23c03a96d,Group_FJ,0,303f5f131605b1a0e8cf965fa61221cdf4aad5fe9695d1dea3dc82422cf74458,2615.1291370391846,False,keypress,prescreenRsp_cabcap,1094,[],choice-response,Cab,617b99111dff2d27ea3d3ef3,Cab,2259,51,PrescreenTrials
607affb9d112a7e23c03a96d,Group_FJ,0,303f5f131605b1a0e8cf965fa61221cdf4aad5fe9695d1dea3dc82422cf74458,2615.1291370391846,False,keypress,prescreenRsp_fadfat,2133,[],choice-response,Fad,617b99111dff2d27ea3d3ef3,Fat,3151,52,PrescreenTrials
607affb9d112a7e23c03a96d,Group_FJ,0,303f5f131605b1a0e8cf965fa61221cdf4aad5fe9695d1dea3dc82422cf74458,2615.1291370391846,False,keypress,prescreenRsp_cabcap,732,[],choice-response,Cap,617b99111dff2d27ea3d3ef3,Cab,1737,53,PrescreenTrials
607affb9d112a7e23c03a96d,Group_FJ,0,303f5f131605b1a0e8cf965fa61221cdf4aad5fe9695d1dea3dc82422cf74458,2615.1291370391846,False,keypress,prescreenRsp_lablap,596,[],choice-response,Lap,617b99111dff2d27ea3d3ef3,Lap,1390,54,PrescreenTrials
607affb9d112a7e23c03a96d,Group_FJ,0,303f5f131605b1a0e8cf965fa61221cdf4aad5fe9695d1dea3dc82422cf74458,2615.1291370391846,False,keypress,prescreenRsp_bagback,496,[],choice-response,Back,617b99111dff2d27ea3d3ef3,Back,1248,55,PrescreenTrials
607affb9d112a7e23c03a96d,Group_FJ,0,303f5f131605b1a0e8cf965fa61221cdf4aad5fe9695d1dea3dc82422cf74458,2615.1291370391846,False,keypress,prescreenRsp_lablap,611,[],choice-response,Lap,617b99111dff2d27ea3d3ef3,Lab,1964,56,PrescreenTrials
607affb9d112a7e23c03a96d,Group_FJ,0,303f5f131605b1a0e8cf965fa61221cdf4aad5fe9695d1dea3dc82422cf74458,2615.1291370391846,False,keypress,prescreenRsp_fadfat,419,[],choice-response,Fad,617b99111dff2d27ea3d3ef3,Fad,1596,57,PrescreenTrials
607affb9d112a7e23c03a96d,Group_FJ,0,303f5f131605b1a0e8cf965fa61221cdf4aad5fe9695d1dea3dc82422cf74458,2615.1291370391846,False,keypress,prescreenRsp_cabcap,490,[],choice-response,Cap,617b99111dff2d27ea3d3ef3,Cap,1264,58,PrescreenTrials
607affb9d112a7e23c03a96d,Group_FJ,0,303f5f131605b1a0e8cf965fa61221cdf4aad5fe9695d1dea3dc82422cf74458,2615.1291370391846,False,keypress,prescreenRsp_laglack,459,[],choice-response,Lack,617b99111dff2d27ea3d3ef3,Lack,1400,59,PrescreenTrials
607affb9d112a7e23c03a96d,Group_FJ,0,303f5f131605b1a0e8cf965fa61221cdf4aad5fe9695d1dea3dc82422cf74458,2615.1291370391846,False,keypress,prescreenRsp_beadbeat,446,[],choice-response,Beat,617b99111dff2d27ea3d3ef3,Beat,1296,60,PrescreenTrials
607affb9d112a7e23c03a96d,Group_FJ,0,303f5f131605b1a0e8cf965fa61221cdf4aad5fe9695d1dea3dc82422cf74458,2615.1291370391846,False,keypress,prescreenRsp_beadbeat,788,[],choice-response,Bead,617b99111dff2d27ea3d3ef3,Bead,1819,61,PrescreenTrials
607affb9d112a7e23c03a96d,Group_FJ,0,303f5f131605b1a0e8cf965fa61221cdf4aad5fe9695d1dea3dc82422cf74458,2615.1291370391846,False,keypress,prescreenRsp_laglack,1188,[],choice-response,Lag,617b99111dff2d27ea3d3ef3,Lag,2414,62,PrescreenTrials
607affb9d112a7e23c03a96d,Group_FJ,0,303f5f131605b1a0e8cf965fa61221cdf4aad5fe9695d1dea3dc82422cf74458,2615.1291370391846,False,keypress,prescreenRsp_bagback,442,[],choice-response,Bag,617b99111dff2d27ea3d3ef3,Bag,1382,63,PrescreenTrials
607affb9d112a7e23c03a96d,Group_FJ,0,303f5f131605b1a0e8cf965fa61221cdf4aad5fe9695d1dea3dc82422cf74458,2615.1291370391846,False,keypress,prescreenRsp_bagback,1169,[],choice-response,Bag,617b99111dff2d27ea3d3ef3,Bag,1975,64,PrescreenTrials
607affb9d112a7e23c03a96d,Group_FJ,0,303f5f131605b1a0e8cf965fa61221cdf4aad5fe9695d1dea3dc82422cf74458,2615.1291370391846,False,keypress,prescreenRsp_laglack,838,[],choice-response,Lag,617b99111dff2d27ea3d3ef3,Lag,2064,65,PrescreenTrials
607affb9d112a7e23c03a96d,Group_FJ,0,303f5f131605b1a0e8cf965fa61221cdf4aad5fe9695d1dea3dc82422cf74458,2615.1291370391846,False,keypress,prescreenRsp_lablap,815,[],choice-response,Lap,617b99111dff2d27ea3d3ef3,Lab,1959,66,PrescreenTrials
607affb9d112a7e23c03a96d,Group_FJ,0,303f5f131605b1a0e8cf965fa61221cdf4aad5fe9695d1dea3dc82422cf74458,2615.1291370391846,False,keypress,prescreenRsp_lablap,1195,[],choice-response,Lap,617b99111dff2d27ea3d3ef3,Lap,1966,67,PrescreenTrials
607affb9d112a7e23c03a96d,Group_FJ,0,303f5f131605b1a0e8cf965fa61221cdf4aad5fe9695d1dea3dc82422cf74458,2615.1291370391846,False,keypress,prescreenRsp_laglack,990,[],choice-response,Lack,617b99111dff2d27ea3d3ef3,Lack,1787,68,PrescreenTrials
607affb9d112a7e23c03a96d,Group_FJ,0,303f5f131605b1a0e8cf965fa61221cdf4aad5fe9695d1dea3dc82422cf74458,2615.1291370391846,False,keypress,prescreenRsp_fadfat,2004,[],choice-response,Fad,617b99111dff2d27ea3d3ef3,Fat,3012,69,PrescreenTrials
607affb9d112a7e23c03a96d,Group_FJ,0,303f5f131605b1a0e8cf965fa61221cdf4aad5fe9695d1dea3dc82422cf74458,2615.1291370391846,False,keypress,prescreenRsp_cabcap,877,[],choice-response,Cab,617b99111dff2d27ea3d3ef3,Cab,1866,70,PrescreenTrials
607affb9d112a7e23c03a96d,Group_FJ,0,303f5f131605b1a0e8cf965fa61221cdf4aad5fe9695d1dea3dc82422cf74458,2615.1291370391846,False,keypress,prescreenRsp_cabcap,529,[],choice-response,Cap,617b99111dff2d27ea3d3ef3,Cap,1445,71,PrescreenTrials
607affb9d112a7e23c03a96d,Group_FJ,0,303f5f131605b1a0e8cf965fa61221cdf4aad5fe9695d1dea3dc82422cf74458,2615.1291370391846,False,keypress,prescreenRsp_beadbeat,607,[],choice-response,Beat,617b99111dff2d27ea3d3ef3,Beat,1422,72,PrescreenTrials
607affb9d112a7e23c03a96d,Group_FJ,0,303f5f131605b1a0e8cf965fa61221cdf4aad5fe9695d1dea3dc82422cf74458,2615.1291370391846,False,keypress,prescreenRsp_beadbeat,643,[],choice-response,Bead,617b99111dff2d27ea3d3ef3,Bead,1885,73,PrescreenTrials
607affb9d112a7e23c03a96d,Group_FJ,0,303f5f131605b1a0e8cf965fa61221cdf4aad5fe9695d1dea3dc82422cf74458,2615.1291370391846,False,keypress,prescreenRsp_bagback,2337,[],choice-response,Back,617b99111dff2d27ea3d3ef3,Back,3089,74,PrescreenTrials
607affb9d112a7e23c03a96d,Group_FJ,0,303f5f131605b1a0e8cf965fa61221cdf4aad5fe9695d1dea3dc82422cf74458,2615.1291370391846,False,keypress,prescreenRsp_fadfat,968,[],choice-response,Fad,617b99111dff2d27ea3d3ef3,Fad,2142,75,PrescreenTrials
607affb9d112a7e23c03a96d,Group_FJ,0,303f5f131605b1a0e8cf965fa61221cdf4aad5fe9695d1dea3dc82422cf74458,2615.1291370391846,False,keypress,prescreenRsp_lablap,1409,[],choice-response,Lab,617b99111dff2d27ea3d3ef3,Lab,2394,76,PrescreenTrials
607affb9d112a7e23c03a96d,Group_FJ,0,303f5f131605b1a0e8cf965fa61221cdf4aad5fe9695d1dea3dc82422cf74458,2615.1291370391846,False,keypress,prescreenRsp_laglack,994,[],choice-response,Lag,617b99111dff2d27ea3d3ef3,Lag,2074,77,PrescreenTrials
607affb9d112a7e23c03a96d,Group_FJ,0,303f5f131605b1a0e8cf965fa61221cdf4aad5fe9695d1dea3dc82422cf74458,2615.1291370391846,False,keypress,prescreenRsp_bagback,640,[],choice-response,Bag,617b99111dff2d27ea3d3ef3,Bag,1844,78,PrescreenTrials
607affb9d112a7e23c03a96d,Group_FJ,0,303f5f131605b1a0e8cf965fa61221cdf4aad5fe9695d1dea3dc82422cf74458,2615.1291370391846,False,keypress,prescreenRsp_laglack,701,[],choice-response,Lack,617b99111dff2d27ea3d3ef3,Lack,1464,79,PrescreenTrials
607affb9d112a7e23c03a96d,Group_FJ,0,303f5f131605b1a0e8cf965fa61221cdf4aad5fe9695d1dea3dc82422cf74458,2615.1291370391846,False,keypress,prescreenRsp_bagback,621,[],choice-response,Back,617b99111dff2d27ea3d3ef3,Back,1465,80,PrescreenTrials
607affb9d112a7e23c03a96d,Group_FJ,0,303f5f131605b1a0e8cf965fa61221cdf4aad5fe9695d1dea3dc82422cf74458,2615.1291370391846,False,keypress,prescreenRsp_beadbeat,554,[],choice-response,Beat,617b99111dff2d27ea3d3ef3,Beat,1367,81,PrescreenTrials
607affb9d112a7e23c03a96d,Group_FJ,0,303f5f131605b1a0e8cf965fa61221cdf4aad5fe9695d1dea3dc82422cf74458,2615.1291370391846,False,keypress,prescreenRsp_fadfat,741,[],choice-response,Fat,617b99111dff2d27ea3d3ef3,Fat,2154,82,PrescreenTrials
607affb9d112a7e23c03a96d,Group_FJ,0,303f5f131605b1a0e8cf965fa61221cdf4aad5fe9695d1dea3dc82422cf74458,2615.1291370391846,False,keypress,prescreenRsp_cabcap,1099,[],choice-response,Cab,617b99111dff2d27ea3d3ef3,Cab,2294,83,PrescreenTrials
607affb9d112a7e23c03a96d,Group_FJ,0,303f5f131605b1a0e8cf965fa61221cdf4aad5fe9695d1dea3dc82422cf74458,2615.1291370391846,False,keypress,prescreenRsp_lablap,578,[],choice-response,Lap,617b99111dff2d27ea3d3ef3,Lap,1429,84,PrescreenTrials
607affb9d112a7e23c03a96d,Group_FJ,0,303f5f131605b1a0e8cf965fa61221cdf4aad5fe9695d1dea3dc82422cf74458,2615.1291370391846,False,keypress,prescreenRsp_fadfat,402,[],choice-response,Fad,617b99111dff2d27ea3d3ef3,Fad,1659,85,PrescreenTrials
607affb9d112a7e23c03a96d,Group_FJ,0,303f5f131605b1a0e8cf965fa61221cdf4aad5fe9695d1dea3dc82422cf74458,2615.1291370391846,False,keypress,prescreenRsp_beadbeat,405,[],choice-response,Bead,617b99111dff2d27ea3d3ef3,Bead,1501,86,PrescreenTrials
607affb9d112a7e23c03a96d,Group_FJ,0,303f5f131605b1a0e8cf965fa61221cdf4aad5fe9695d1dea3dc82422cf74458,2615.1291370391846,False,keypress,prescreenRsp_cabcap,439,[],choice-response,Cap,617b99111dff2d27ea3d3ef3,Cap,1201,87,PrescreenTrials
607affb9d112a7e23c03a96d,Group_FJ,0,303f5f131605b1a0e8cf965fa61221cdf4aad5fe9695d1dea3dc82422cf74458,2615.1291370391846,False,keypress,prescreenRsp_beadbeat,570,[],choice-response,Beat,617b99111dff2d27ea3d3ef3,Beat,1366,88,PrescreenTrials
607affb9d112a7e23c03a96d,Group_FJ,0,303f5f131605b1a0e8cf965fa61221cdf4aad5fe9695d1dea3dc82422cf74458,2615.1291370391846,False,keypress,prescreenRsp_fadfat,791,[],choice-response,Fad,617b99111dff2d27ea3d3ef3,Fad,2105,89,PrescreenTrials
607affb9d112a7e23c03a96d,Group_FJ,0,303f5f131605b1a0e8cf965fa61221cdf4aad5fe9695d1dea3dc82422cf74458,2615.1291370391846,False,keypress,prescreenRsp_lablap,2204,[],choice-response,Lab,617b99111dff2d27ea3d3ef3,Lab,3344,90,PrescreenTrials
607affb9d112a7e23c03a96d,Group_FJ,0,303f5f131605b1a0e8cf965fa61221cdf4aad5fe9695d1dea3dc82422cf74458,2615.1291370391846,False,keypress,prescreenRsp_bagback,704,[],choice-response,Bag,617b99111dff2d27ea3d3ef3,Bag,1669,91,PrescreenTrials
607affb9d112a7e23c03a96d,Group_FJ,0,303f5f131605b1a0e8cf965fa61221cdf4aad5fe9695d1dea3dc82422cf74458,2615.1291370391846,False,keypress,prescreenRsp_beadbeat,428,[],choice-response,Bead,617b99111dff2d27ea3d3ef3,Bead,1515,92,PrescreenTrials
607affb9d112a7e23c03a96d,Group_FJ,0,303f5f131605b1a0e8cf965fa61221cdf4aad5fe9695d1dea3dc82422cf74458,2615.1291370391846,False,keypress,prescreenRsp_fadfat,1491,[],choice-response,Fat,617b99111dff2d27ea3d3ef3,Fat,2718,93,PrescreenTrials
607affb9d112a7e23c03a96d,Group_FJ,0,303f5f131605b1a0e8cf965fa61221cdf4aad5fe9695d1dea3dc82422cf74458,2615.1291370391846,False,keypress,prescreenRsp_cabcap,1466,[],choice-response,Cab,617b99111dff2d27ea3d3ef3,Cab,2487,94,PrescreenTrials
607affb9d112a7e23c03a96d,Group_FJ,0,303f5f131605b1a0e8cf965fa61221cdf4aad5fe9695d1dea3dc82422cf74458,2615.1291370391846,False,keypress,prescreenRsp_bagback,580,[],choice-response,Back,617b99111dff2d27ea3d3ef3,Back,1333,95,PrescreenTrials
607affb9d112a7e23c03a96d,Group_FJ,0,303f5f131605b1a0e8cf965fa61221cdf4aad5fe9695d1dea3dc82422cf74458,2615.1291370391846,False,keypress,prescreenRsp_cabcap,437,[],choice-response,Cap,617b99111dff2d27ea3d3ef3,Cap,1345,96,PrescreenTrials
607affb9d112a7e23c03a96d,Group_FJ,0,303f5f131605b1a0e8cf965fa61221cdf4aad5fe9695d1dea3dc82422cf74458,2615.1291370391846,False,keypress,prescreenRsp_laglack,324,[],choice-response,Lag,617b99111dff2d27ea3d3ef3,Lag,1673,97,PrescreenTrials
607affb9d112a7e23c03a96d,Group_FJ,0,303f5f131605b1a0e8cf965fa61221cdf4aad5fe9695d1dea3dc82422cf74458,2615.1291370391846,False,keypress,prescreenRsp_laglack,472,[],choice-response,Lack,617b99111dff2d27ea3d3ef3,Lack,2364,98,PrescreenTrials
607affb9d112a7e23c03a96d,Group_FJ,0,303f5f131605b1a0e8cf965fa61221cdf4aad5fe9695d1dea3dc82422cf74458,2615.1291370391846,False,keypress,prescreenRsp_lablap,591,[],choice-response,Lap,617b99111dff2d27ea3d3ef3,Lap,1395,99,PrescreenTrials
607affb9d112a7e23c03a96d,Group_FJ,0,303f5f131605b1a0e8cf965fa61221cdf4aad5fe9695d1dea3dc82422cf74458,2615.1291370391846,False,keypress,prescreenRsp_bagback,360,[],choice-response,Bag,617b99111dff2d27ea3d3ef3,Bag,1427,100,PrescreenTrials
607affb9d112a7e23c03a96d,Group_FJ,0,303f5f131605b1a0e8cf965fa61221cdf4aad5fe9695d1dea3dc82422cf74458,2615.1291370391846,False,keypress,prescreenRsp_laglack,603,[],choice-response,Lack,617b99111dff2d27ea3d3ef3,Lack,1571,101,PrescreenTrials
607affb9d112a7e23c03a96d,Group_FJ,0,303f5f131605b1a0e8cf965fa61221cdf4aad5fe9695d1dea3dc82422cf74458,2615.1291370391846,False,keypress,prescreenRsp_lablap,836,[],choice-response,Lab,617b99111dff2d27ea3d3ef3,Lab,1862,102,PrescreenTrials
607affb9d112a7e23c03a96d,Group_FJ,0,303f5f131605b1a0e8cf965fa61221cdf4aad5fe9695d1dea3dc82422cf74458,2615.1291370391846,False,keypress,prescreenRsp_lablap,687,[],choice-response,Lap,617b99111dff2d27ea3d3ef3,Lap,1453,103,PrescreenTrials
607affb9d112a7e23c03a96d,Group_FJ,0,303f5f131605b1a0e8cf965fa61221cdf4aad5fe9695d1dea3dc82422cf74458,2615.1291370391846,False,keypress,prescreenRsp_bagback,872,[],choice-response,Back,617b99111dff2d27ea3d3ef3,Back,1624,104,PrescreenTrials
607affb9d112a7e23c03a96d,Group_FJ,0,303f5f131605b1a0e8cf965fa61221cdf4aad5fe9695d1dea3dc82422cf74458,2615.1291370391846,False,keypress,prescreenRsp_cabcap,1320,[],choice-response,Cab,617b99111dff2d27ea3d3ef3,Cab,2315,105,PrescreenTrials
607affb9d112a7e23c03a96d,Group_FJ,0,303f5f131605b1a0e8cf965fa61221cdf4aad5fe9695d1dea3dc82422cf74458,2615.1291370391846,False,keypress,prescreenRsp_fadfat,536,[],choice-response,Fad,617b99111dff2d27ea3d3ef3,Fad,1771,106,PrescreenTrials
607affb9d112a7e23c03a96d,Group_FJ,0,303f5f131605b1a0e8cf965fa61221cdf4aad5fe9695d1dea3dc82422cf74458,2615.1291370391846,False,keypress,prescreenRsp_beadbeat,774,[],choice-response,Bead,617b99111dff2d27ea3d3ef3,Bead,1786,107,PrescreenTrials
607affb9d112a7e23c03a96d,Group_FJ,0,303f5f131605b1a0e8cf965fa61221cdf4aad5fe9695d1dea3dc82422cf74458,2615.1291370391846,False,keypress,prescreenRsp_beadbeat,946,[],choice-response,Beat,617b99111dff2d27ea3d3ef3,Beat,2062,108,PrescreenTrials
607affb9d112a7e23c03a96d,Group_FJ,0,303f5f131605b1a0e8cf965fa61221cdf4aad5fe9695d1dea3dc82422cf74458,2615.1291370391846,False,keypress,prescreenRsp_laglack,1724,[],choice-response,Lag,617b99111dff2d27ea3d3ef3,Lag,2922,109,PrescreenTrials
607affb9d112a7e23c03a96d,Group_FJ,0,303f5f131605b1a0e8cf965fa61221cdf4aad5fe9695d1dea3dc82422cf74458,2615.1291370391846,False,keypress,prescreenRsp_cabcap,709,[],choice-response,Cap,617b99111dff2d27ea3d3ef3,Cap,1468,110,PrescreenTrials
607affb9d112a7e23c03a96d,Group_FJ,0,303f5f131605b1a0e8cf965fa61221cdf4aad5fe9695d1dea3dc82422cf74458,2615.1291370391846,False,keypress,prescreenRsp_fadfat,763,[],choice-response,Fat,617b99111dff2d27ea3d3ef3,Fat,1805,111,PrescreenTrials
607affb9d112a7e23c03a96d,Group_FJ,0,303f5f131605b1a0e8cf965fa61221cdf4aad5fe9695d1dea3dc82422cf74458,2615.1291370391846,False,keypress,prescreenRsp_cabcap,899,[],choice-response,Cap,617b99111dff2d27ea3d3ef3,Cab,2175,112,PrescreenTrials
607affb9d112a7e23c03a96d,Group_FJ,0,303f5f131605b1a0e8cf965fa61221cdf4aad5fe9695d1dea3dc82422cf74458,2615.1291370391846,False,keypress,prescreenRsp_fadfat,800,[],choice-response,Fat,617b99111dff2d27ea3d3ef3,Fat,1963,113,PrescreenTrials
607affb9d112a7e23c03a96d,Group_FJ,0,303f5f131605b1a0e8cf965fa61221cdf4aad5fe9695d1dea3dc82422cf74458,2615.1291370391846,False,keypress,prescreenRsp_fadfat,496,[],choice-response,Fad,617b99111dff2d27ea3d3ef3,Fad,1684,114,PrescreenTrials
607affb9d112a7e23c03a96d,Group_FJ,0,303f5f131605b1a0e8cf965fa61221cdf4aad5fe9695d1dea3dc82422cf74458,2615.1291370391846,False,keypress,prescreenRsp_beadbeat,353,[],choice-response,Bead,617b99111dff2d27ea3d3ef3,Bead,1355,115,PrescreenTrials
607affb9d112a7e23c03a96d,Group_FJ,0,303f5f131605b1a0e8cf965fa61221cdf4aad5fe9695d1dea3dc82422cf74458,2615.1291370391846,False,keypress,prescreenRsp_laglack,618,[],choice-response,Lack,617b99111dff2d27ea3d3ef3,Lack,1378,116,PrescreenTrials
607affb9d112a7e23c03a96d,Group_FJ,0,303f5f131605b1a0e8cf965fa61221cdf4aad5fe9695d1dea3dc82422cf74458,2615.1291370391846,False,keypress,prescreenRsp_lablap,928,[],choice-response,Lab,617b99111dff2d27ea3d3ef3,Lab,2035,117,PrescreenTrials
607affb9d112a7e23c03a96d,Group_FJ,0,303f5f131605b1a0e8cf965fa61221cdf4aad5fe9695d1dea3dc82422cf74458,2615.1291370391846,False,keypress,prescreenRsp_laglack,1194,[],choice-response,Lag,617b99111dff2d27ea3d3ef3,Lag,2340,118,PrescreenTrials
607affb9d112a7e23c03a96d,Group_FJ,0,303f5f131605b1a0e8cf965fa61221cdf4aad5fe9695d1dea3dc82422cf74458,2615.1291370391846,False,keypress,prescreenRsp_bagback,1495,[],choice-response,Back,617b99111dff2d27ea3d3ef3,Back,2253,119,PrescreenTrials
607affb9d112a7e23c03a96d,Group_FJ,0,303f5f131605b1a0e8cf965fa61221cdf4aad5fe9695d1dea3dc82422cf74458,2615.1291370391846,False,keypress,prescreenRsp_beadbeat,621,[],choice-response,Beat,617b99111dff2d27ea3d3ef3,Beat,1416,120,PrescreenTrials
607affb9d112a7e23c03a96d,Group_FJ,0,303f5f131605b1a0e8cf965fa61221cdf4aad5fe9695d1dea3dc82422cf74458,2615.1291370391846,False,keypress,prescreenRsp_cabcap,511,[],choice-response,Cap,617b99111dff2d27ea3d3ef3,Cap,1297,121,PrescreenTrials
607affb9d112a7e23c03a96d,Group_FJ,0,303f5f131605b1a0e8cf965fa61221cdf4aad5fe9695d1dea3dc82422cf74458,2615.1291370391846,False,keypress,prescreenRsp_lablap,495,[],choice-response,Lap,617b99111dff2d27ea3d3ef3,Lap,1389,122,PrescreenTrials
607affb9d112a7e23c03a96d,Group_FJ,0,303f5f131605b1a0e8cf965fa61221cdf4aad5fe9695d1dea3dc82422cf74458,2615.1291370391846,False,keypress,prescreenRsp_bagback,409,[],choice-response,Bag,617b99111dff2d27ea3d3ef3,Bag,1380,123,PrescreenTrials
607affb9d112a7e23c03a96d,Group_FJ,0,303f5f131605b1a0e8cf965fa61221cdf4aad5fe9695d1dea3dc82422cf74458,2615.1291370391846,False,keypress,testRsp,2356,[],choice-response,Lap,617b99111dff2d27ea3d3ef3,Lab7,3291,124,DiscriminationTrials
607affb9d112a7e23c03a96d,Group_FJ,0,303f5f131605b1a0e8cf965fa61221cdf4aad5fe9695d1dea3dc82422cf74458,2615.1291370391846,False,keypress,testRsp,1538,[],choice-response,Lap,617b99111dff2d27ea3d3ef3,Lab3,2356,125,DiscriminationTrials
607affb9d112a7e23c03a96d,Group_FJ,0,303f5f131605b1a0e8cf965fa61221cdf4aad5fe9695d1dea3dc82422cf74458,2615.1291370391846,False,keypress,testRsp,1113,[],choice-response,Lap,617b99111dff2d27ea3d3ef3,Lab6,1991,126,DiscriminationTrials
607affb9d112a7e23c03a96d,Group_FJ,0,303f5f131605b1a0e8cf965fa61221cdf4aad5fe9695d1dea3dc82422cf74458,2615.1291370391846,False,keypress,testRsp,1387,[],choice-response,Lab,617b99111dff2d27ea3d3ef3,Lab5,2358,127,DiscriminationTrials
607affb9d112a7e23c03a96d,Group_FJ,0,303f5f131605b1a0e8cf965fa61221cdf4aad5fe9695d1dea3dc82422cf74458,2615.1291370391846,False,keypress,testRsp,972,[],choice-response,Lab,617b99111dff2d27ea3d3ef3,Lab4,1875,128,DiscriminationTrials
607affb9d112a7e23c03a96d,Group_FJ,0,303f5f131605b1a0e8cf965fa61221cdf4aad5fe9695d1dea3dc82422cf74458,2615.1291370391846,False,keypress,testRsp,1422,[],choice-response,Lap,617b99111dff2d27ea3d3ef3,Lab1,2179,129,DiscriminationTrials
607affb9d112a7e23c03a96d,Group_FJ,0,303f5f131605b1a0e8cf965fa61221cdf4aad5fe9695d1dea3dc82422cf74458,2615.1291370391846,False,keypress,testRsp,813,[],choice-response,Lab,617b99111dff2d27ea3d3ef3,Lab8,1739,130,DiscriminationTrials
607affb9d112a7e23c03a96d,Group_FJ,0,303f5f131605b1a0e8cf965fa61221cdf4aad5fe9695d1dea3dc82422cf74458,2615.1291370391846,False,keypress,testRsp,651,[],choice-response,Lap,617b99111dff2d27ea3d3ef3,Lab2,1469,131,DiscriminationTrials
607affb9d112a7e23c03a96d,Group_FJ,0,303f5f131605b1a0e8cf965fa61221cdf4aad5fe9695d1dea3dc82422cf74458,2615.1291370391846,False,keypress,testRsp,827,[],choice-response,Lab,617b99111dff2d27ea3d3ef3,Lab8,1607,132,DiscriminationTrials
607affb9d112a7e23c03a96d,Group_FJ,0,303f5f131605b1a0e8cf965fa61221cdf4aad5fe9695d1dea3dc82422cf74458,2615.1291370391846,False,keypress,testRsp,824,[],choice-response,Lab,617b99111dff2d27ea3d3ef3,Lab5,1719,133,DiscriminationTrials
607affb9d112a7e23c03a96d,Group_FJ,0,303f5f131605b1a0e8cf965fa61221cdf4aad5fe9695d1dea3dc82422cf74458,2615.1291370391846,False,keypress,testRsp,462,[],choice-response,Lap,617b99111dff2d27ea3d3ef3,Lab3,1399,134,DiscriminationTrials
607affb9d112a7e23c03a96d,Group_FJ,0,303f5f131605b1a0e8cf965fa61221cdf4aad5fe9695d1dea3dc82422cf74458,2615.1291370391846,False,keypress,testRsp,1346,[],choice-response,Lap,617b99111dff2d27ea3d3ef3,Lab1,2136,135,DiscriminationTrials
607affb9d112a7e23c03a96d,Group_FJ,0,303f5f131605b1a0e8cf965fa61221cdf4aad5fe9695d1dea3dc82422cf74458,2615.1291370391846,False,keypress,testRsp,2017,[],choice-response,Lab,617b99111dff2d27ea3d3ef3,Lab2,2689,136,DiscriminationTrials
607affb9d112a7e23c03a96d,Group_FJ,0,303f5f131605b1a0e8cf965fa61221cdf4aad5fe9695d1dea3dc82422cf74458,2615.1291370391846,False,keypress,testRsp,1053,[],choice-response,Lab,617b99111dff2d27ea3d3ef3,Lab4,2033,137,DiscriminationTrials
607affb9d112a7e23c03a96d,Group_FJ,0,303f5f131605b1a0e8cf965fa61221cdf4aad5fe9695d1dea3dc82422cf74458,2615.1291370391846,False,keypress,testRsp,829,[],choice-response,Lab,617b99111dff2d27ea3d3ef3,Lab6,2102,138,DiscriminationTrials
607affb9d112a7e23c03a96d,Group_FJ,0,303f5f131605b1a0e8cf965fa61221cdf4aad5fe9695d1dea3dc82422cf74458,2615.1291370391846,False,keypress,testRsp,598,[],choice-response,Lab,617b99111dff2d27ea3d3ef3,Lab7,1675,139,DiscriminationTrials
607affb9d112a7e23c03a96d,Group_FJ,0,303f5f131605b1a0e8cf965fa61221cdf4aad5fe9695d1dea3dc82422cf74458,2615.1291370391846,False,keypress,testRsp,432,[],choice-response,Lab,617b99111dff2d27ea3d3ef3,Lab7,1187,140,DiscriminationTrials
607affb9d112a7e23c03a96d,Group_FJ,0,303f5f131605b1a0e8cf965fa61221cdf4aad5fe9695d1dea3dc82422cf74458,2615.1291370391846,False,keypress,testRsp,1183,[],choice-response,Lab,617b99111dff2d27ea3d3ef3,Lab5,2062,141,DiscriminationTrials
607affb9d112a7e23c03a96d,Group_FJ,0,303f5f131605b1a0e8cf965fa61221cdf4aad5fe9695d1dea3dc82422cf74458,2615.1291370391846,False,keypress,testRsp,536,[],choice-response,Lap,617b99111dff2d27ea3d3ef3,Lab2,1339,142,DiscriminationTrials
607affb9d112a7e23c03a96d,Group_FJ,0,303f5f131605b1a0e8cf965fa61221cdf4aad5fe9695d1dea3dc82422cf74458,2615.1291370391846,False,keypress,testRsp,1203,[],choice-response,Lap,617b99111dff2d27ea3d3ef3,Lab4,2221,143,DiscriminationTrials
607affb9d112a7e23c03a96d,Group_FJ,0,303f5f131605b1a0e8cf965fa61221cdf4aad5fe9695d1dea3dc82422cf74458,2615.1291370391846,False,keypress,testRsp,510,[],choice-response,Lap,617b99111dff2d27ea3d3ef3,Lab1,1420,144,DiscriminationTrials
607affb9d112a7e23c03a96d,Group_FJ,0,303f5f131605b1a0e8cf965fa61221cdf4aad5fe9695d1dea3dc82422cf74458,2615.1291370391846,False,keypress,testRsp,328,[],choice-response,Lab,617b99111dff2d27ea3d3ef3,Lab8,1418,145,DiscriminationTrials
607affb9d112a7e23c03a96d,Group_FJ,0,303f5f131605b1a0e8cf965fa61221cdf4aad5fe9695d1dea3dc82422cf74458,2615.1291370391846,False,keypress,testRsp,983,[],choice-response,Lap,617b99111dff2d27ea3d3ef3,Lab3,1851,146,DiscriminationTrials
607affb9d112a7e23c03a96d,Group_FJ,0,303f5f131605b1a0e8cf965fa61221cdf4aad5fe9695d1dea3dc82422cf74458,2615.1291370391846,False,keypress,testRsp,1340,[],choice-response,Lab,617b99111dff2d27ea3d3ef3,Lab6,2235,147,DiscriminationTrials
607affb9d112a7e23c03a96d,Group_FJ,0,303f5f131605b1a0e8cf965fa61221cdf4aad5fe9695d1dea3dc82422cf74458,2615.1291370391846,False,keypress,testRsp,373,[],choice-response,Lab,617b99111dff2d27ea3d3ef3,Lab7,1289,148,DiscriminationTrials
607affb9d112a7e23c03a96d,Group_FJ,0,303f5f131605b1a0e8cf965fa61221cdf4aad5fe9695d1dea3dc82422cf74458,2615.1291370391846,False,keypress,testRsp,665,[],choice-response,Lab,617b99111dff2d27ea3d3ef3,Lab3,1350,149,DiscriminationTrials
607affb9d112a7e23c03a96d,Group_FJ,0,303f5f131605b1a0e8cf965fa61221cdf4aad5fe9695d1dea3dc82422cf74458,2615.1291370391846,False,keypress,testRsp,326,[],choice-response,Lab,617b99111dff2d27ea3d3ef3,Lab8,1106,150,DiscriminationTrials
607affb9d112a7e23c03a96d,Group_FJ,0,303f5f131605b1a0e8cf965fa61221cdf4aad5fe9695d1dea3dc82422cf74458,2615.1291370391846,False,keypress,testRsp,872,[],choice-response,Lab,617b99111dff2d27ea3d3ef3,Lab6,1608,151,DiscriminationTrials
607affb9d112a7e23c03a96d,Group_FJ,0,303f5f131605b1a0e8cf965fa61221cdf4aad5fe9695d1dea3dc82422cf74458,2615.1291370391846,False,keypress,testRsp,500,[],choice-response,Lap,617b99111dff2d27ea3d3ef3,Lab2,1501,152,DiscriminationTrials
607affb9d112a7e23c03a96d,Group_FJ,0,303f5f131605b1a0e8cf965fa61221cdf4aad5fe9695d1dea3dc82422cf74458,2615.1291370391846,False,keypress,testRsp,2025,[],choice-response,Lap,617b99111dff2d27ea3d3ef3,Lab1,2794,153,DiscriminationTrials
607affb9d112a7e23c03a96d,Group_FJ,0,303f5f131605b1a0e8cf965fa61221cdf4aad5fe9695d1dea3dc82422cf74458,2615.1291370391846,False,keypress,testRsp,731,[],choice-response,Lab,617b99111dff2d27ea3d3ef3,Lab5,1806,154,DiscriminationTrials
607affb9d112a7e23c03a96d,Group_FJ,0,303f5f131605b1a0e8cf965fa61221cdf4aad5fe9695d1dea3dc82422cf74458,2615.1291370391846,False,keypress,testRsp,754,[],choice-response,Lab,617b99111dff2d27ea3d3ef3,Lab4,1607,155,DiscriminationTrials
607affb9d112a7e23c03a96d,Group_FJ,0,303f5f131605b1a0e8cf965fa61221cdf4aad5fe9695d1dea3dc82422cf74458,2615.1291370391846,False,keypress,testRsp,748,[],choice-response,Lab,617b99111dff2d27ea3d3ef3,Lab7,1502,156,DiscriminationTrials
607affb9d112a7e23c03a96d,Group_FJ,0,303f5f131605b1a0e8cf965fa61221cdf4aad5fe9695d1dea3dc82422cf74458,2615.1291370391846,False,keypress,testRsp,546,[],choice-response,Lab,617b99111dff2d27ea3d3ef3,Lab8,1324,157,DiscriminationTrials
607affb9d112a7e23c03a96d,Group_FJ,0,303f5f131605b1a0e8cf965fa61221cdf4aad5fe9695d1dea3dc82422cf74458,2615.1291370391846,False,keypress,testRsp,360,[],choice-response,Lap,617b99111dff2d27ea3d3ef3,Lab3,1043,158,DiscriminationTrials
607affb9d112a7e23c03a96d,Group_FJ,0,303f5f131605b1a0e8cf965fa61221cdf4aad5fe9695d1dea3dc82422cf74458,2615.1291370391846,False,keypress,testRsp,275,[],choice-response,Lap,617b99111dff2d27ea3d3ef3,Lab2,933,159,DiscriminationTrials
607affb9d112a7e23c03a96d,Group_FJ,0,303f5f131605b1a0e8cf965fa61221cdf4aad5fe9695d1dea3dc82422cf74458,2615.1291370391846,False,keypress,testRsp,854,[],choice-response,Lap,617b99111dff2d27ea3d3ef3,Lab5,1890,160,DiscriminationTrials
607affb9d112a7e23c03a96d,Group_FJ,0,303f5f131605b1a0e8cf965fa61221cdf4aad5fe9695d1dea3dc82422cf74458,2615.1291370391846,False,keypress,testRsp,666,[],choice-response,Lab,617b99111dff2d27ea3d3ef3,Lab4,1531,161,DiscriminationTrials
607affb9d112a7e23c03a96d,Group_FJ,0,303f5f131605b1a0e8cf965fa61221cdf4aad5fe9695d1dea3dc82422cf74458,2615.1291370391846,False,keypress,testRsp,309,[],choice-response,Lab,617b99111dff2d27ea3d3ef3,Lab6,1254,162,DiscriminationTrials
607affb9d112a7e23c03a96d,Group_FJ,0,303f5f131605b1a0e8cf965fa61221cdf4aad5fe9695d1dea3dc82422cf74458,2615.1291370391846,False,keypress,testRsp,472,[],choice-response,Lap,617b99111dff2d27ea3d3ef3,Lab1,1252,163,DiscriminationTrials
607affb9d112a7e23c03a96d,Group_FJ,0,303f5f131605b1a0e8cf965fa61221cdf4aad5fe9695d1dea3dc82422cf74458,2615.1291370391846,False,keypress,testRsp,516,[],choice-response,Lab,617b99111dff2d27ea3d3ef3,Lab6,1244,164,DiscriminationTrials
607affb9d112a7e23c03a96d,Group_FJ,0,303f5f131605b1a0e8cf965fa61221cdf4aad5fe9695d1dea3dc82422cf74458,2615.1291370391846,False,keypress,testRsp,344,[],choice-response,Lap,617b99111dff2d27ea3d3ef3,Lab2,1004,165,DiscriminationTrials
607affb9d112a7e23c03a96d,Group_FJ,0,303f5f131605b1a0e8cf965fa61221cdf4aad5fe9695d1dea3dc82422cf74458,2615.1291370391846,False,keypress,testRsp,362,[],choice-response,Lap,617b99111dff2d27ea3d3ef3,Lab1,999,166,DiscriminationTrials
607affb9d112a7e23c03a96d,Group_FJ,0,303f5f131605b1a0e8cf965fa61221cdf4aad5fe9695d1dea3dc82422cf74458,2615.1291370391846,False,keypress,testRsp,454,[],choice-response,Lab,617b99111dff2d27ea3d3ef3,Lab7,1432,167,DiscriminationTrials
607affb9d112a7e23c03a96d,Group_FJ,0,303f5f131605b1a0e8cf965fa61221cdf4aad5fe9695d1dea3dc82422cf74458,2615.1291370391846,False,keypress,testRsp,534,[],choice-response,Lab,617b99111dff2d27ea3d3ef3,Lab5,1263,168,DiscriminationTrials
607affb9d112a7e23c03a96d,Group_FJ,0,303f5f131605b1a0e8cf965fa61221cdf4aad5fe9695d1dea3dc82422cf74458,2615.1291370391846,False,keypress,testRsp,892,[],choice-response,Lab,617b99111dff2d27ea3d3ef3,Lab4,1598,169,DiscriminationTrials
607affb9d112a7e23c03a96d,Group_FJ,0,303f5f131605b1a0e8cf965fa61221cdf4aad5fe9695d1dea3dc82422cf74458,2615.1291370391846,False,keypress,testRsp,562,[],choice-response,Lap,617b99111dff2d27ea3d3ef3,Lab3,1383,170,DiscriminationTrials
607affb9d112a7e23c03a96d,Group_FJ,0,303f5f131605b1a0e8cf965fa61221cdf4aad5fe9695d1dea3dc82422cf74458,2615.1291370391846,False,keypress,testRsp,375,[],choice-response,Lab,617b99111dff2d27ea3d3ef3,Lab8,1301,171,DiscriminationTrials
607affb9d112a7e23c03a96d,Group_FJ,0,303f5f131605b1a0e8cf965fa61221cdf4aad5fe9695d1dea3dc82422cf74458,2615.1291370391846,False,keypress,testRsp,1032,[],choice-response,Lab,617b99111dff2d27ea3d3ef3,Lab5,1901,172,DiscriminationTrials
607affb9d112a7e23c03a96d,Group_FJ,0,303f5f131605b1a0e8cf965fa61221cdf4aad5fe9695d1dea3dc82422cf74458,2615.1291370391846,False,keypress,testRsp,373,[],choice-response,Lap,617b99111dff2d27ea3d3ef3,Lab2,1154,173,DiscriminationTrials
607affb9d112a7e23c03a96d,Group_FJ,0,303f5f131605b1a0e8cf965fa61221cdf4aad5fe9695d1dea3dc82422cf74458,2615.1291370391846,False,keypress,testRsp,378,[],choice-response,Lab,617b99111dff2d27ea3d3ef3,Lab6,1248,174,DiscriminationTrials
607affb9d112a7e23c03a96d,Group_FJ,0,303f5f131605b1a0e8cf965fa61221cdf4aad5fe9695d1dea3dc82422cf74458,2615.1291370391846,False,keypress,testRsp,526,[],choice-response,Lab,617b99111dff2d27ea3d3ef3,Lab8,1305,175,DiscriminationTrials
607affb9d112a7e23c03a96d,Group_FJ,0,303f5f131605b1a0e8cf965fa61221cdf4aad5fe9695d1dea3dc82422cf74458,2615.1291370391846,False,keypress,testRsp,878,[],choice-response,Lab,617b99111dff2d27ea3d3ef3,Lab3,1710,176,DiscriminationTrials
607affb9d112a7e23c03a96d,Group_FJ,0,303f5f131605b1a0e8cf965fa61221cdf4aad5fe9695d1dea3dc82422cf74458,2615.1291370391846,False,keypress,testRsp,195,[],choice-response,Lab,617b99111dff2d27ea3d3ef3,Lab7,1263,177,DiscriminationTrials
607affb9d112a7e23c03a96d,Group_FJ,0,303f5f131605b1a0e8cf965fa61221cdf4aad5fe9695d1dea3dc82422cf74458,2615.1291370391846,False,keypress,testRsp,629,[],choice-response,Lap,617b99111dff2d27ea3d3ef3,Lab4,1551,178,DiscriminationTrials
607affb9d112a7e23c03a96d,Group_FJ,0,303f5f131605b1a0e8cf965fa61221cdf4aad5fe9695d1dea3dc82422cf74458,2615.1291370391846,False,keypress,testRsp,340,[],choice-response,Lap,617b99111dff2d27ea3d3ef3,Lab1,1105,179,DiscriminationTrials
607affb9d112a7e23c03a96d,Group_FJ,0,303f5f131605b1a0e8cf965fa61221cdf4aad5fe9695d1dea3dc82422cf74458,2615.1291370391846,False,keypress,testRsp,674,[],choice-response,Lap,617b99111dff2d27ea3d3ef3,Lab4,1385,180,DiscriminationTrials
607affb9d112a7e23c03a96d,Group_FJ,0,303f5f131605b1a0e8cf965fa61221cdf4aad5fe9695d1dea3dc82422cf74458,2615.1291370391846,False,keypress,testRsp,288,[],choice-response,Lab,617b99111dff2d27ea3d3ef3,Lab7,1382,181,DiscriminationTrials
607affb9d112a7e23c03a96d,Group_FJ,0,303f5f131605b1a0e8cf965fa61221cdf4aad5fe9695d1dea3dc82422cf74458,2615.1291370391846,False,keypress,testRsp,448,[],choice-response,Lap,617b99111dff2d27ea3d3ef3,Lab2,1244,182,DiscriminationTrials
607affb9d112a7e23c03a96d,Group_FJ,0,303f5f131605b1a0e8cf965fa61221cdf4aad5fe9695d1dea3dc82422cf74458,2615.1291370391846,False,keypress,testRsp,306,[],choice-response,Lab,617b99111dff2d27ea3d3ef3,Lab8,1249,183,DiscriminationTrials
607affb9d112a7e23c03a96d,Group_FJ,0,303f5f131605b1a0e8cf965fa61221cdf4aad5fe9695d1dea3dc82422cf74458,2615.1291370391846,False,keypress,testRsp,627,[],choice-response,Lap,617b99111dff2d27ea3d3ef3,Lab3,1450,184,DiscriminationTrials
607affb9d112a7e23c03a96d,Group_FJ,0,303f5f131605b1a0e8cf965fa61221cdf4aad5fe9695d1dea3dc82422cf74458,2615.1291370391846,False,keypress,testRsp,740,[],choice-response,Lap,617b99111dff2d27ea3d3ef3,Lab5,1687,185,DiscriminationTrials
607affb9d112a7e23c03a96d,Group_FJ,0,303f5f131605b1a0e8cf965fa61221cdf4aad5fe9695d1dea3dc82422cf74458,2615.1291370391846,False,keypress,testRsp,409,[],choice-response,Lap,617b99111dff2d27ea3d3ef3,Lab1,1201,186,DiscriminationTrials
607affb9d112a7e23c03a96d,Group_FJ,0,303f5f131605b1a0e8cf965fa61221cdf4aad5fe9695d1dea3dc82422cf74458,2615.1291370391846,False,keypress,testRsp,300,[],choice-response,Lab,617b99111dff2d27ea3d3ef3,Lab6,1335,187,DiscriminationTrials
607affb9d112a7e23c03a96d,Group_FJ,0,303f5f131605b1a0e8cf965fa61221cdf4aad5fe9695d1dea3dc82422cf74458,2615.1291370391846,False,keypress,testRsp,531,[],choice-response,Lap,617b99111dff2d27ea3d3ef3,Lab1,1165,188,DiscriminationTrials
607affb9d112a7e23c03a96d,Group_FJ,0,303f5f131605b1a0e8cf965fa61221cdf4aad5fe9695d1dea3dc82422cf74458,2615.1291370391846,False,keypress,testRsp,687,[],choice-response,Lab,617b99111dff2d27ea3d3ef3,Lab2,1480,189,DiscriminationTrials
607affb9d112a7e23c03a96d,Group_FJ,0,303f5f131605b1a0e8cf965fa61221cdf4aad5fe9695d1dea3dc82422cf74458,2615.1291370391846,False,keypress,testRsp,194,[],choice-response,Lab,617b99111dff2d27ea3d3ef3,Lab5,930,190,DiscriminationTrials
607affb9d112a7e23c03a96d,Group_FJ,0,303f5f131605b1a0e8cf965fa61221cdf4aad5fe9695d1dea3dc82422cf74458,2615.1291370391846,False,keypress,testRsp,689,[],choice-response,Lap,617b99111dff2d27ea3d3ef3,Lab4,1525,191,DiscriminationTrials
607affb9d112a7e23c03a96d,Group_FJ,0,303f5f131605b1a0e8cf965fa61221cdf4aad5fe9695d1dea3dc82422cf74458,2615.1291370391846,False,keypress,testRsp,600,[],choice-response,Lab,617b99111dff2d27ea3d3ef3,Lab7,1566,192,DiscriminationTrials
607affb9d112a7e23c03a96d,Group_FJ,0,303f5f131605b1a0e8cf965fa61221cdf4aad5fe9695d1dea3dc82422cf74458,2615.1291370391846,False,keypress,testRsp,698,[],choice-response,Lab,617b99111dff2d27ea3d3ef3,Lab6,1433,193,DiscriminationTrials
607affb9d112a7e23c03a96d,Group_FJ,0,303f5f131605b1a0e8cf965fa61221cdf4aad5fe9695d1dea3dc82422cf74458,2615.1291370391846,False,keypress,testRsp,652,[],choice-response,Lab,617b99111dff2d27ea3d3ef3,Lab8,1434,194,DiscriminationTrials
607affb9d112a7e23c03a96d,Group_FJ,0,303f5f131605b1a0e8cf965fa61221cdf4aad5fe9695d1dea3dc82422cf74458,2615.1291370391846,False,keypress,testRsp,1089,[],choice-response,Lap,617b99111dff2d27ea3d3ef3,Lab3,1775,195,DiscriminationTrials
607affb9d112a7e23c03a96d,Group_FJ,0,303f5f131605b1a0e8cf965fa61221cdf4aad5fe9695d1dea3dc82422cf74458,2615.1291370391846,False,keypress,testRsp,536,[],choice-response,Lap,617b99111dff2d27ea3d3ef3,Lab3,1218,196,DiscriminationTrials
607affb9d112a7e23c03a96d,Group_FJ,0,303f5f131605b1a0e8cf965fa61221cdf4aad5fe9695d1dea3dc82422cf74458,2615.1291370391846,False,keypress,testRsp,453,[],choice-response,Lab,617b99111dff2d27ea3d3ef3,Lab6,1192,197,DiscriminationTrials
607affb9d112a7e23c03a96d,Group_FJ,0,303f5f131605b1a0e8cf965fa61221cdf4aad5fe9695d1dea3dc82422cf74458,2615.1291370391846,False,keypress,testRsp,429,[],choice-response,Lap,617b99111dff2d27ea3d3ef3,Lab2,1091,198,DiscriminationTrials
607affb9d112a7e23c03a96d,Group_FJ,0,303f5f131605b1a0e8cf965fa61221cdf4aad5fe9695d1dea3dc82422cf74458,2615.1291370391846,False,keypress,testRsp,948,[],choice-response,Lab,617b99111dff2d27ea3d3ef3,Lab4,1656,199,DiscriminationTrials
607affb9d112a7e23c03a96d,Group_FJ,0,303f5f131605b1a0e8cf965fa61221cdf4aad5fe9695d1dea3dc82422cf74458,2615.1291370391846,False,keypress,testRsp,339,[],choice-response,Lap,617b99111dff2d27ea3d3ef3,Lab1,977,200,DiscriminationTrials
607affb9d112a7e23c03a96d,Group_FJ,0,303f5f131605b1a0e8cf965fa61221cdf4aad5fe9695d1dea3dc82422cf74458,2615.1291370391846,False,keypress,testRsp,540,[],choice-response,Lab,617b99111dff2d27ea3d3ef3,Lab8,1314,201,DiscriminationTrials
607affb9d112a7e23c03a96d,Group_FJ,0,303f5f131605b1a0e8cf965fa61221cdf4aad5fe9695d1dea3dc82422cf74458,2615.1291370391846,False,keypress,testRsp,486,[],choice-response,Lab,617b99111dff2d27ea3d3ef3,Lab5,1219,202,DiscriminationTrials
607affb9d112a7e23c03a96d,Group_FJ,0,303f5f131605b1a0e8cf965fa61221cdf4aad5fe9695d1dea3dc82422cf74458,2615.1291370391846,False,keypress,testRsp,302,[],choice-response,Lab,617b99111dff2d27ea3d3ef3,Lab7,1051,203,DiscriminationTrials
607affb9d112a7e23c03a96d,Group_FJ,0,303f5f131605b1a0e8cf965fa61221cdf4aad5fe9695d1dea3dc82422cf74458,2615.1291370391846,False,keypress,testRsp,737,[],choice-response,Lab,617b99111dff2d27ea3d3ef3,Lab8,1953,204,DiscriminationTrials
607affb9d112a7e23c03a96d,Group_FJ,0,303f5f131605b1a0e8cf965fa61221cdf4aad5fe9695d1dea3dc82422cf74458,2615.1291370391846,False,keypress,testRsp,487,[],choice-response,Lap,617b99111dff2d27ea3d3ef3,Lab1,1462,205,DiscriminationTrials
607affb9d112a7e23c03a96d,Group_FJ,0,303f5f131605b1a0e8cf965fa61221cdf4aad5fe9695d1dea3dc82422cf74458,2615.1291370391846,False,keypress,testRsp,1012,[],choice-response,Lab,617b99111dff2d27ea3d3ef3,Lab3,1820,206,DiscriminationTrials
607affb9d112a7e23c03a96d,Group_FJ,0,303f5f131605b1a0e8cf965fa61221cdf4aad5fe9695d1dea3dc82422cf74458,2615.1291370391846,False,keypress,testRsp,315,[],choice-response,Lab,617b99111dff2d27ea3d3ef3,Lab6,1191,207,DiscriminationTrials
607affb9d112a7e23c03a96d,Group_FJ,0,303f5f131605b1a0e8cf965fa61221cdf4aad5fe9695d1dea3dc82422cf74458,2615.1291370391846,False,keypress,testRsp,374,[],choice-response,Lab,617b99111dff2d27ea3d3ef3,Lab7,1126,208,DiscriminationTrials
607affb9d112a7e23c03a96d,Group_FJ,0,303f5f131605b1a0e8cf965fa61221cdf4aad5fe9695d1dea3dc82422cf74458,2615.1291370391846,False,keypress,testRsp,575,[],choice-response,Lap,617b99111dff2d27ea3d3ef3,Lab2,1395,209,DiscriminationTrials
607affb9d112a7e23c03a96d,Group_FJ,0,303f5f131605b1a0e8cf965fa61221cdf4aad5fe9695d1dea3dc82422cf74458,2615.1291370391846,False,keypress,testRsp,501,[],choice-response,Lab,617b99111dff2d27ea3d3ef3,Lab5,1429,210,DiscriminationTrials
607affb9d112a7e23c03a96d,Group_FJ,0,303f5f131605b1a0e8cf965fa61221cdf4aad5fe9695d1dea3dc82422cf74458,2615.1291370391846,False,keypress,testRsp,1452,[],choice-response,Lap,617b99111dff2d27ea3d3ef3,Lab4,2477,211,DiscriminationTrials
607affb9d112a7e23c03a96d,Group_FJ,0,303f5f131605b1a0e8cf965fa61221cdf4aad5fe9695d1dea3dc82422cf74458,2615.1291370391846,False,keypress,testRsp,317,[],choice-response,Lap,617b99111dff2d27ea3d3ef3,Lab1,984,212,DiscriminationTrials
607affb9d112a7e23c03a96d,Group_FJ,0,303f5f131605b1a0e8cf965fa61221cdf4aad5fe9695d1dea3dc82422cf74458,2615.1291370391846,False,keypress,testRsp,712,[],choice-response,Lab,617b99111dff2d27ea3d3ef3,Lab4,1422,213,DiscriminationTrials
607affb9d112a7e23c03a96d,Group_FJ,0,303f5f131605b1a0e8cf965fa61221cdf4aad5fe9695d1dea3dc82422cf74458,2615.1291370391846,False,keypress,testRsp,310,[],choice-response,Lab,617b99111dff2d27ea3d3ef3,Lab8,1088,214,DiscriminationTrials
607affb9d112a7e23c03a96d,Group_FJ,0,303f5f131605b1a0e8cf965fa61221cdf4aad5fe9695d1dea3dc82422cf74458,2615.1291370391846,False,keypress,testRsp,460,[],choice-response,Lab,617b99111dff2d27ea3d3ef3,Lab6,1186,215,DiscriminationTrials
607affb9d112a7e23c03a96d,Group_FJ,0,303f5f131605b1a0e8cf965fa61221cdf4aad5fe9695d1dea3dc82422cf74458,2615.1291370391846,False,keypress,testRsp,525,[],choice-response,Lab,617b99111dff2d27ea3d3ef3,Lab5,1255,216,DiscriminationTrials
607affb9d112a7e23c03a96d,Group_FJ,0,303f5f131605b1a0e8cf965fa61221cdf4aad5fe9695d1dea3dc82422cf74458,2615.1291370391846,False,keypress,testRsp,384,[],choice-response,Lap,617b99111dff2d27ea3d3ef3,Lab2,1052,217,DiscriminationTrials
607affb9d112a7e23c03a96d,Group_FJ,0,303f5f131605b1a0e8cf965fa61221cdf4aad5fe9695d1dea3dc82422cf74458,2615.1291370391846,False,keypress,testRsp,540,[],choice-response,Lab,617b99111dff2d27ea3d3ef3,Lab7,1294,218,DiscriminationTrials
607affb9d112a7e23c03a96d,Group_FJ,0,303f5f131605b1a0e8cf965fa61221cdf4aad5fe9695d1dea3dc82422cf74458,2615.1291370391846,False,keypress,testRsp,383,[],choice-response,Lap,617b99111dff2d27ea3d3ef3,Lab3,1065,219,DiscriminationTrials
607affb9d112a7e23c03a96d,Group_FJ,0,303f5f131605b1a0e8cf965fa61221cdf4aad5fe9695d1dea3dc82422cf74458,2615.1291370391846,False,keypress,testRsp,435,[],choice-response,Lab,617b99111dff2d27ea3d3ef3,Lab7,1192,220,DiscriminationTrials
607affb9d112a7e23c03a96d,Group_FJ,0,303f5f131605b1a0e8cf965fa61221cdf4aad5fe9695d1dea3dc82422cf74458,2615.1291370391846,False,keypress,testRsp,303,[],choice-response,Lap,617b99111dff2d27ea3d3ef3,Lab2,960,221,DiscriminationTrials
607affb9d112a7e23c03a96d,Group_FJ,0,303f5f131605b1a0e8cf965fa61221cdf4aad5fe9695d1dea3dc82422cf74458,2615.1291370391846,False,keypress,testRsp,677,[],choice-response,Lab,617b99111dff2d27ea3d3ef3,Lab5,1409,222,DiscriminationTrials
607affb9d112a7e23c03a96d,Group_FJ,0,303f5f131605b1a0e8cf965fa61221cdf4aad5fe9695d1dea3dc82422cf74458,2615.1291370391846,False,keypress,testRsp,1288,[],choice-response,Lab,617b99111dff2d27ea3d3ef3,Lab4,2002,223,DiscriminationTrials
607affb9d112a7e23c03a96d,Group_FJ,0,303f5f131605b1a0e8cf965fa61221cdf4aad5fe9695d1dea3dc82422cf74458,2615.1291370391846,False,keypress,testRsp,408,[],choice-response,Lab,617b99111dff2d27ea3d3ef3,Lab6,1143,224,DiscriminationTrials
607affb9d112a7e23c03a96d,Group_FJ,0,303f5f131605b1a0e8cf965fa61221cdf4aad5fe9695d1dea3dc82422cf74458,2615.1291370391846,False,keypress,testRsp,366,[],choice-response,Lap,617b99111dff2d27ea3d3ef3,Lab1,1157,225,DiscriminationTrials
607affb9d112a7e23c03a96d,Group_FJ,0,303f5f131605b1a0e8cf965fa61221cdf4aad5fe9695d1dea3dc82422cf74458,2615.1291370391846,False,keypress,testRsp,742,[],choice-response,Lap,617b99111dff2d27ea3d3ef3,Lab3,1556,226,DiscriminationTrials
607affb9d112a7e23c03a96d,Group_FJ,0,303f5f131605b1a0e8cf965fa61221cdf4aad5fe9695d1dea3dc82422cf74458,2615.1291370391846,False,keypress,testRsp,286,[],choice-response,Lab,617b99111dff2d27ea3d3ef3,Lab8,1219,227,DiscriminationTrials
607affb9d112a7e23c03a96d,Group_FJ,0,303f5f131605b1a0e8cf965fa61221cdf4aad5fe9695d1dea3dc82422cf74458,2615.1291370391846,False,keypress,testRsp,488,[],choice-response,Lab,617b99111dff2d27ea3d3ef3,Lab5,1368,228,DiscriminationTrials
607affb9d112a7e23c03a96d,Group_FJ,0,303f5f131605b1a0e8cf965fa61221cdf4aad5fe9695d1dea3dc82422cf74458,2615.1291370391846,False,keypress,testRsp,449,[],choice-response,Lab,617b99111dff2d27ea3d3ef3,Lab7,1354,229,DiscriminationTrials
607affb9d112a7e23c03a96d,Group_FJ,0,303f5f131605b1a0e8cf965fa61221cdf4aad5fe9695d1dea3dc82422cf74458,2615.1291370391846,False,keypress,testRsp,203,[],choice-response,Lab,617b99111dff2d27ea3d3ef3,Lab6,1060,230,DiscriminationTrials
607affb9d112a7e23c03a96d,Group_FJ,0,303f5f131605b1a0e8cf965fa61221cdf4aad5fe9695d1dea3dc82422cf74458,2615.1291370391846,False,keypress,testRsp,380,[],choice-response,Lap,617b99111dff2d27ea3d3ef3,Lab1,1160,231,DiscriminationTrials
607affb9d112a7e23c03a96d,Group_FJ,0,303f5f131605b1a0e8cf965fa61221cdf4aad5fe9695d1dea3dc82422cf74458,2615.1291370391846,False,keypress,testRsp,404,[],choice-response,Lab,617b99111dff2d27ea3d3ef3,Lab4,1242,232,DiscriminationTrials
607affb9d112a7e23c03a96d,Group_FJ,0,303f5f131605b1a0e8cf965fa61221cdf4aad5fe9695d1dea3dc82422cf74458,2615.1291370391846,False,keypress,testRsp,1206,[],choice-response,Lab,617b99111dff2d27ea3d3ef3,Lab3,2039,233,DiscriminationTrials
607affb9d112a7e23c03a96d,Group_FJ,0,303f5f131605b1a0e8cf965fa61221cdf4aad5fe9695d1dea3dc82422cf74458,2615.1291370391846,False,keypress,testRsp,482,[],choice-response,Lab,617b99111dff2d27ea3d3ef3,Lab8,1261,234,DiscriminationTrials
607affb9d112a7e23c03a96d,Group_FJ,0,303f5f131605b1a0e8cf965fa61221cdf4aad5fe9695d1dea3dc82422cf74458,2615.1291370391846,False,keypress,testRsp,645,[],choice-response,Lap,617b99111dff2d27ea3d3ef3,Lab2,1880,235,DiscriminationTrials
607affb9d112a7e23c03a96d,Group_FJ,0,303f5f131605b1a0e8cf965fa61221cdf4aad5fe9695d1dea3dc82422cf74458,2615.1291370391846,False,keypress,testRsp,1077,[],choice-response,Lap,617b99111dff2d27ea3d3ef3,Lab4,1782,236,DiscriminationTrials
607affb9d112a7e23c03a96d,Group_FJ,0,303f5f131605b1a0e8cf965fa61221cdf4aad5fe9695d1dea3dc82422cf74458,2615.1291370391846,False,keypress,testRsp,688,[],choice-response,Lap,617b99111dff2d27ea3d3ef3,Lab1,1324,237,DiscriminationTrials
607affb9d112a7e23c03a96d,Group_FJ,0,303f5f131605b1a0e8cf965fa61221cdf4aad5fe9695d1dea3dc82422cf74458,2615.1291370391846,False,keypress,testRsp,780,[],choice-response,Lap,617b99111dff2d27ea3d3ef3,Lab5,1511,238,DiscriminationTrials
607affb9d112a7e23c03a96d,Group_FJ,0,303f5f131605b1a0e8cf965fa61221cdf4aad5fe9695d1dea3dc82422cf74458,2615.1291370391846,False,keypress,testRsp,503,[],choice-response,Lap,617b99111dff2d27ea3d3ef3,Lab2,1162,239,DiscriminationTrials
607affb9d112a7e23c03a96d,Group_FJ,0,303f5f131605b1a0e8cf965fa61221cdf4aad5fe9695d1dea3dc82422cf74458,2615.1291370391846,False,keypress,testRsp,546,[],choice-response,Lab,617b99111dff2d27ea3d3ef3,Lab7,1307,240,DiscriminationTrials
607affb9d112a7e23c03a96d,Group_FJ,0,303f5f131605b1a0e8cf965fa61221cdf4aad5fe9695d1dea3dc82422cf74458,2615.1291370391846,False,keypress,testRsp,244,[],choice-response,Lab,617b99111dff2d27ea3d3ef3,Lab6,974,241,DiscriminationTrials
607affb9d112a7e23c03a96d,Group_FJ,0,303f5f131605b1a0e8cf965fa61221cdf4aad5fe9695d1dea3dc82422cf74458,2615.1291370391846,False,keypress,testRsp,1082,[],choice-response,Lab,617b99111dff2d27ea3d3ef3,Lab8,1857,242,DiscriminationTrials
607affb9d112a7e23c03a96d,Group_FJ,0,303f5f131605b1a0e8cf965fa61221cdf4aad5fe9695d1dea3dc82422cf74458,2615.1291370391846,False,keypress,testRsp,457,[],choice-response,Lab,617b99111dff2d27ea3d3ef3,Lab3,1137,243,DiscriminationTrials
607affb9d112a7e23c03a96d,Group_FJ,0,303f5f131605b1a0e8cf965fa61221cdf4aad5fe9695d1dea3dc82422cf74458,2615.1291370391846,False,keypress,testRsp,365,[],choice-response,Lab,617b99111dff2d27ea3d3ef3,Lab5,1097,244,DiscriminationTrials
607affb9d112a7e23c03a96d,Group_FJ,0,303f5f131605b1a0e8cf965fa61221cdf4aad5fe9695d1dea3dc82422cf74458,2615.1291370391846,False,keypress,testRsp,554,[],choice-response,Lab,617b99111dff2d27ea3d3ef3,Lab6,1281,245,DiscriminationTrials
607affb9d112a7e23c03a96d,Group_FJ,0,303f5f131605b1a0e8cf965fa61221cdf4aad5fe9695d1dea3dc82422cf74458,2615.1291370391846,False,keypress,testRsp,597,[],choice-response,Lap,617b99111dff2d27ea3d3ef3,Lab3,1279,246,DiscriminationTrials
607affb9d112a7e23c03a96d,Group_FJ,0,303f5f131605b1a0e8cf965fa61221cdf4aad5fe9695d1dea3dc82422cf74458,2615.1291370391846,False,keypress,testRsp,410,[],choice-response,Lab,617b99111dff2d27ea3d3ef3,Lab8,1330,247,DiscriminationTrials
607affb9d112a7e23c03a96d,Group_FJ,0,303f5f131605b1a0e8cf965fa61221cdf4aad5fe9695d1dea3dc82422cf74458,2615.1291370391846,False,keypress,testRsp,267,[],choice-response,Lap,617b99111dff2d27ea3d3ef3,Lab1,1254,248,DiscriminationTrials
607affb9d112a7e23c03a96d,Group_FJ,0,303f5f131605b1a0e8cf965fa61221cdf4aad5fe9695d1dea3dc82422cf74458,2615.1291370391846,False,keypress,testRsp,325,[],choice-response,Lab,617b99111dff2d27ea3d3ef3,Lab4,1163,249,DiscriminationTrials
607affb9d112a7e23c03a96d,Group_FJ,0,303f5f131605b1a0e8cf965fa61221cdf4aad5fe9695d1dea3dc82422cf74458,2615.1291370391846,False,keypress,testRsp,635,[],choice-response,Lab,617b99111dff2d27ea3d3ef3,Lab2,1429,250,DiscriminationTrials
607affb9d112a7e23c03a96d,Group_FJ,0,303f5f131605b1a0e8cf965fa61221cdf4aad5fe9695d1dea3dc82422cf74458,2615.1291370391846,False,keypress,testRsp,301,[],choice-response,Lab,617b99111dff2d27ea3d3ef3,Lab7,1202,251,DiscriminationTrials
607affb9d112a7e23c03a96d,Group_FJ,0,303f5f131605b1a0e8cf965fa61221cdf4aad5fe9695d1dea3dc82422cf74458,2615.1291370391846,False,keypress,testRsp,448,[],choice-response,Lap,617b99111dff2d27ea3d3ef3,Lab1,1091,252,DiscriminationTrials
607affb9d112a7e23c03a96d,Group_FJ,0,303f5f131605b1a0e8cf965fa61221cdf4aad5fe9695d1dea3dc82422cf74458,2615.1291370391846,False,keypress,testRsp,503,[],choice-response,Lab,617b99111dff2d27ea3d3ef3,Lab7,1261,253,DiscriminationTrials
607affb9d112a7e23c03a96d,Group_FJ,0,303f5f131605b1a0e8cf965fa61221cdf4aad5fe9695d1dea3dc82422cf74458,2615.1291370391846,False,keypress,testRsp,386,[],choice-response,Lap,617b99111dff2d27ea3d3ef3,Lab2,1051,254,DiscriminationTrials
607affb9d112a7e23c03a96d,Group_FJ,0,303f5f131605b1a0e8cf965fa61221cdf4aad5fe9695d1dea3dc82422cf74458,2615.1291370391846,False,keypress,testRsp,258,[],choice-response,Lab,617b99111dff2d27ea3d3ef3,Lab6,1137,255,DiscriminationTrials
607affb9d112a7e23c03a96d,Group_FJ,0,303f5f131605b1a0e8cf965fa61221cdf4aad5fe9695d1dea3dc82422cf74458,2615.1291370391846,False,keypress,testRsp,501,[],choice-response,Lab,617b99111dff2d27ea3d3ef3,Lab8,1274,256,DiscriminationTrials
607affb9d112a7e23c03a96d,Group_FJ,0,303f5f131605b1a0e8cf965fa61221cdf4aad5fe9695d1dea3dc82422cf74458,2615.1291370391846,False,keypress,testRsp,641,[],choice-response,Lab,617b99111dff2d27ea3d3ef3,Lab5,1742,257,DiscriminationTrials
607affb9d112a7e23c03a96d,Group_FJ,0,303f5f131605b1a0e8cf965fa61221cdf4aad5fe9695d1dea3dc82422cf74458,2615.1291370391846,False,keypress,testRsp,468,[],choice-response,Lap,617b99111dff2d27ea3d3ef3,Lab3,1150,258,DiscriminationTrials
607affb9d112a7e23c03a96d,Group_FJ,0,303f5f131605b1a0e8cf965fa61221cdf4aad5fe9695d1dea3dc82422cf74458,2615.1291370391846,False,keypress,testRsp,794,[],choice-response,Lap,617b99111dff2d27ea3d3ef3,Lab4,1518,259,DiscriminationTrials
607affb9d112a7e23c03a96d,Group_FJ,0,303f5f131605b1a0e8cf965fa61221cdf4aad5fe9695d1dea3dc82422cf74458,2615.1291370391846,False,keypress,testRsp,581,[],choice-response,Lab,617b99111dff2d27ea3d3ef3,Lab8,1369,260,DiscriminationTrials
607affb9d112a7e23c03a96d,Group_FJ,0,303f5f131605b1a0e8cf965fa61221cdf4aad5fe9695d1dea3dc82422cf74458,2615.1291370391846,False,keypress,testRsp,407,[],choice-response,Lap,617b99111dff2d27ea3d3ef3,Lab2,1074,261,DiscriminationTrials
607affb9d112a7e23c03a96d,Group_FJ,0,303f5f131605b1a0e8cf965fa61221cdf4aad5fe9695d1dea3dc82422cf74458,2615.1291370391846,False,keypress,testRsp,574,[],choice-response,Lab,617b99111dff2d27ea3d3ef3,Lab7,1331,262,DiscriminationTrials
607affb9d112a7e23c03a96d,Group_FJ,0,303f5f131605b1a0e8cf965fa61221cdf4aad5fe9695d1dea3dc82422cf74458,2615.1291370391846,False,keypress,testRsp,527,[],choice-response,Lap,617b99111dff2d27ea3d3ef3,Lab1,1163,263,DiscriminationTrials
607affb9d112a7e23c03a96d,Group_FJ,0,303f5f131605b1a0e8cf965fa61221cdf4aad5fe9695d1dea3dc82422cf74458,2615.1291370391846,False,keypress,testRsp,1233,[],choice-response,Lap,617b99111dff2d27ea3d3ef3,Lab4,1936,264,DiscriminationTrials
607affb9d112a7e23c03a96d,Group_FJ,0,303f5f131605b1a0e8cf965fa61221cdf4aad5fe9695d1dea3dc82422cf74458,2615.1291370391846,False,keypress,testRsp,228,[],choice-response,Lab,617b99111dff2d27ea3d3ef3,Lab5,956,265,DiscriminationTrials
607affb9d112a7e23c03a96d,Group_FJ,0,303f5f131605b1a0e8cf965fa61221cdf4aad5fe9695d1dea3dc82422cf74458,2615.1291370391846,False,keypress,testRsp,487,[],choice-response,Lap,617b99111dff2d27ea3d3ef3,Lab3,1171,266,DiscriminationTrials
607affb9d112a7e23c03a96d,Group_FJ,0,303f5f131605b1a0e8cf965fa61221cdf4aad5fe9695d1dea3dc82422cf74458,2615.1291370391846,False,keypress,testRsp,466,[],choice-response,Lab,617b99111dff2d27ea3d3ef3,Lab6,1198,267,DiscriminationTrials
607affb9d112a7e23c03a96d,Group_FJ,0,303f5f131605b1a0e8cf965fa61221cdf4aad5fe9695d1dea3dc82422cf74458,2615.1291370391846,False,keypress,testRsp,410,[],choice-response,Lab,617b99111dff2d27ea3d3ef3,Lab4,1116,268,DiscriminationTrials
607affb9d112a7e23c03a96d,Group_FJ,0,303f5f131605b1a0e8cf965fa61221cdf4aad5fe9695d1dea3dc82422cf74458,2615.1291370391846,False,keypress,testRsp,466,[],choice-response,Lab,617b99111dff2d27ea3d3ef3,Lab7,1223,269,DiscriminationTrials
607affb9d112a7e23c03a96d,Group_FJ,0,303f5f131605b1a0e8cf965fa61221cdf4aad5fe9695d1dea3dc82422cf74458,2615.1291370391846,False,keypress,testRsp,356,[],choice-response,Lab,617b99111dff2d27ea3d3ef3,Lab8,1284,270,DiscriminationTrials
607affb9d112a7e23c03a96d,Group_FJ,0,303f5f131605b1a0e8cf965fa61221cdf4aad5fe9695d1dea3dc82422cf74458,2615.1291370391846,False,keypress,testRsp,304,[],choice-response,Lap,617b99111dff2d27ea3d3ef3,Lab2,1093,271,DiscriminationTrials
607affb9d112a7e23c03a96d,Group_FJ,0,303f5f131605b1a0e8cf965fa61221cdf4aad5fe9695d1dea3dc82422cf74458,2615.1291370391846,False,keypress,testRsp,628,[],choice-response,Lap,617b99111dff2d27ea3d3ef3,Lab1,1403,272,DiscriminationTrials
607affb9d112a7e23c03a96d,Group_FJ,0,303f5f131605b1a0e8cf965fa61221cdf4aad5fe9695d1dea3dc82422cf74458,2615.1291370391846,False,keypress,testRsp,312,[],choice-response,Lab,617b99111dff2d27ea3d3ef3,Lab6,1298,273,DiscriminationTrials
607affb9d112a7e23c03a96d,Group_FJ,0,303f5f131605b1a0e8cf965fa61221cdf4aad5fe9695d1dea3dc82422cf74458,2615.1291370391846,False,keypress,testRsp,906,[],choice-response,Lab,617b99111dff2d27ea3d3ef3,Lab5,1776,274,DiscriminationTrials
607affb9d112a7e23c03a96d,Group_FJ,0,303f5f131605b1a0e8cf965fa61221cdf4aad5fe9695d1dea3dc82422cf74458,2615.1291370391846,False,keypress,testRsp,1623,[],choice-response,Lab,617b99111dff2d27ea3d3ef3,Lab3,2779,275,DiscriminationTrials
607affb9d112a7e23c03a96d,Group_FJ,0,303f5f131605b1a0e8cf965fa61221cdf4aad5fe9695d1dea3dc82422cf74458,2615.1291370391846,False,keypress,testRsp,401,[],choice-response,Lab,617b99111dff2d27ea3d3ef3,Lab8,1179,276,DiscriminationTrials
607affb9d112a7e23c03a96d,Group_FJ,0,303f5f131605b1a0e8cf965fa61221cdf4aad5fe9695d1dea3dc82422cf74458,2615.1291370391846,False,keypress,testRsp,1022,[],choice-response,Lab,617b99111dff2d27ea3d3ef3,Lab6,1754,277,DiscriminationTrials
607affb9d112a7e23c03a96d,Group_FJ,0,303f5f131605b1a0e8cf965fa61221cdf4aad5fe9695d1dea3dc82422cf74458,2615.1291370391846,False,keypress,testRsp,427,[],choice-response,Lap,617b99111dff2d27ea3d3ef3,Lab2,1090,278,DiscriminationTrials
607affb9d112a7e23c03a96d,Group_FJ,0,303f5f131605b1a0e8cf965fa61221cdf4aad5fe9695d1dea3dc82422cf74458,2615.1291370391846,False,keypress,testRsp,777,[],choice-response,Lab,617b99111dff2d27ea3d3ef3,Lab7,1658,279,DiscriminationTrials
607affb9d112a7e23c03a96d,Group_FJ,0,303f5f131605b1a0e8cf965fa61221cdf4aad5fe9695d1dea3dc82422cf74458,2615.1291370391846,False,keypress,testRsp,370,[],choice-response,Lap,617b99111dff2d27ea3d3ef3,Lab1,1006,280,DiscriminationTrials
607affb9d112a7e23c03a96d,Group_FJ,0,303f5f131605b1a0e8cf965fa61221cdf4aad5fe9695d1dea3dc82422cf74458,2615.1291370391846,False,keypress,testRsp,372,[],choice-response,Lab,617b99111dff2d27ea3d3ef3,Lab5,1102,281,DiscriminationTrials
607affb9d112a7e23c03a96d,Group_FJ,0,303f5f131605b1a0e8cf965fa61221cdf4aad5fe9695d1dea3dc82422cf74458,2615.1291370391846,False,keypress,testRsp,367,[],choice-response,Lap,617b99111dff2d27ea3d3ef3,Lab3,1054,282,DiscriminationTrials
607affb9d112a7e23c03a96d,Group_FJ,0,303f5f131605b1a0e8cf965fa61221cdf4aad5fe9695d1dea3dc82422cf74458,2615.1291370391846,False,keypress,testRsp,420,[],choice-response,Lap,617b99111dff2d27ea3d3ef3,Lab4,1335,283,DiscriminationTrials
607affb9d112a7e23c03a96d,Group_FJ,0,303f5f131605b1a0e8cf965fa61221cdf4aad5fe9695d1dea3dc82422cf74458,2615.1291370391846,False,keypress,testRsp,906,[],choice-response,Lab,617b99111dff2d27ea3d3ef3,Lab7,1662,284,DiscriminationTrials
607affb9d112a7e23c03a96d,Group_FJ,0,303f5f131605b1a0e8cf965fa61221cdf4aad5fe9695d1dea3dc82422cf74458,2615.1291370391846,False,keypress,testRsp,337,[],choice-response,Lab,617b99111dff2d27ea3d3ef3,Lab4,1039,285,DiscriminationTrials
607affb9d112a7e23c03a96d,Group_FJ,0,303f5f131605b1a0e8cf965fa61221cdf4aad5fe9695d1dea3dc82422cf74458,2615.1291370391846,False,keypress,testRsp,314,[],choice-response,Lab,617b99111dff2d27ea3d3ef3,Lab6,1051,286,DiscriminationTrials
607affb9d112a7e23c03a96d,Group_FJ,0,303f5f131605b1a0e8cf965fa61221cdf4aad5fe9695d1dea3dc82422cf74458,2615.1291370391846,False,keypress,testRsp,288,[],choice-response,Lab,617b99111dff2d27ea3d3ef3,Lab8,1070,287,DiscriminationTrials
607affb9d112a7e23c03a96d,Group_FJ,0,303f5f131605b1a0e8cf965fa61221cdf4aad5fe9695d1dea3dc82422cf74458,2615.1291370391846,False,keypress,testRsp,303,[],choice-response,Lap,617b99111dff2d27ea3d3ef3,Lab1,943,288,DiscriminationTrials
607affb9d112a7e23c03a96d,Group_FJ,0,303f5f131605b1a0e8cf965fa61221cdf4aad5fe9695d1dea3dc82422cf74458,2615.1291370391846,False,keypress,testRsp,309,[],choice-response,Lap,617b99111dff2d27ea3d3ef3,Lab2,967,289,DiscriminationTrials
607affb9d112a7e23c03a96d,Group_FJ,0,303f5f131605b1a0e8cf965fa61221cdf4aad5fe9695d1dea3dc82422cf74458,2615.1291370391846,False,keypress,testRsp,217,[],choice-response,Lap,617b99111dff2d27ea3d3ef3,Lab3,904,290,DiscriminationTrials
607affb9d112a7e23c03a96d,Group_FJ,0,303f5f131605b1a0e8cf965fa61221cdf4aad5fe9695d1dea3dc82422cf74458,2615.1291370391846,False,keypress,testRsp,175,[],choice-response,Lap,617b99111dff2d27ea3d3ef3,Lab5,909,291,DiscriminationTrials
607affb9d112a7e23c03a96d,Group_FJ,0,303f5f131605b1a0e8cf965fa61221cdf4aad5fe9695d1dea3dc82422cf74458,2615.1291370391846,False,keypress,testRsp,468,[],choice-response,Lap,617b99111dff2d27ea3d3ef3,Lab1,1107,292,DiscriminationTrials
607affb9d112a7e23c03a96d,Group_FJ,0,303f5f131605b1a0e8cf965fa61221cdf4aad5fe9695d1dea3dc82422cf74458,2615.1291370391846,False,keypress,testRsp,620,[],choice-response,Lab,617b99111dff2d27ea3d3ef3,Lab6,1355,293,DiscriminationTrials
607affb9d112a7e23c03a96d,Group_FJ,0,303f5f131605b1a0e8cf965fa61221cdf4aad5fe9695d1dea3dc82422cf74458,2615.1291370391846,False,keypress,testRsp,388,[],choice-response,Lab,617b99111dff2d27ea3d3ef3,Lab8,1501,294,DiscriminationTrials
607affb9d112a7e23c03a96d,Group_FJ,0,303f5f131605b1a0e8cf965fa61221cdf4aad5fe9695d1dea3dc82422cf74458,2615.1291370391846,False,keypress,testRsp,724,[],choice-response,Lab,617b99111dff2d27ea3d3ef3,Lab2,1600,295,DiscriminationTrials
607affb9d112a7e23c03a96d,Group_FJ,0,303f5f131605b1a0e8cf965fa61221cdf4aad5fe9695d1dea3dc82422cf74458,2615.1291370391846,False,keypress,testRsp,1005,[],choice-response,Lab,617b99111dff2d27ea3d3ef3,Lab3,1884,296,DiscriminationTrials
607affb9d112a7e23c03a96d,Group_FJ,0,303f5f131605b1a0e8cf965fa61221cdf4aad5fe9695d1dea3dc82422cf74458,2615.1291370391846,False,keypress,testRsp,445,[],choice-response,Lap,617b99111dff2d27ea3d3ef3,Lab4,1297,297,DiscriminationTrials
607affb9d112a7e23c03a96d,Group_FJ,0,303f5f131605b1a0e8cf965fa61221cdf4aad5fe9695d1dea3dc82422cf74458,2615.1291370391846,False,keypress,testRsp,432,[],choice-response,Lab,617b99111dff2d27ea3d3ef3,Lab7,1348,298,DiscriminationTrials
607affb9d112a7e23c03a96d,Group_FJ,0,303f5f131605b1a0e8cf965fa61221cdf4aad5fe9695d1dea3dc82422cf74458,2615.1291370391846,False,keypress,testRsp,687,[],choice-response,Lap,617b99111dff2d27ea3d3ef3,Lab5,1756,299,DiscriminationTrials
607affb9d112a7e23c03a96d,Group_FJ,0,303f5f131605b1a0e8cf965fa61221cdf4aad5fe9695d1dea3dc82422cf74458,2615.1291370391846,False,keypress,testRsp,407,[],choice-response,Lap,617b99111dff2d27ea3d3ef3,Lab7,1159,300,DiscriminationTrials
607affb9d112a7e23c03a96d,Group_FJ,0,303f5f131605b1a0e8cf965fa61221cdf4aad5fe9695d1dea3dc82422cf74458,2615.1291370391846,False,keypress,testRsp,863,[],choice-response,Lap,617b99111dff2d27ea3d3ef3,Lab4,1570,301,DiscriminationTrials
607affb9d112a7e23c03a96d,Group_FJ,0,303f5f131605b1a0e8cf965fa61221cdf4aad5fe9695d1dea3dc82422cf74458,2615.1291370391846,False,keypress,testRsp,331,[],choice-response,Lab,617b99111dff2d27ea3d3ef3,Lab5,1060,302,DiscriminationTrials
607affb9d112a7e23c03a96d,Group_FJ,0,303f5f131605b1a0e8cf965fa61221cdf4aad5fe9695d1dea3dc82422cf74458,2615.1291370391846,False,keypress,testRsp,633,[],choice-response,Lab,617b99111dff2d27ea3d3ef3,Lab6,1506,303,DiscriminationTrials
607affb9d112a7e23c03a96d,Group_FJ,0,303f5f131605b1a0e8cf965fa61221cdf4aad5fe9695d1dea3dc82422cf74458,2615.1291370391846,False,keypress,testRsp,336,[],choice-response,Lap,617b99111dff2d27ea3d3ef3,Lab3,1030,304,DiscriminationTrials
607affb9d112a7e23c03a96d,Group_FJ,0,303f5f131605b1a0e8cf965fa61221cdf4aad5fe9695d1dea3dc82422cf74458,2615.1291370391846,False,keypress,testRsp,350,[],choice-response,Lap,617b99111dff2d27ea3d3ef3,Lab2,1015,305,DiscriminationTrials
607affb9d112a7e23c03a96d,Group_FJ,0,303f5f131605b1a0e8cf965fa61221cdf4aad5fe9695d1dea3dc82422cf74458,2615.1291370391846,False,keypress,testRsp,334,[],choice-response,Lab,617b99111dff2d27ea3d3ef3,Lab8,1109,306,DiscriminationTrials
607affb9d112a7e23c03a96d,Group_FJ,0,303f5f131605b1a0e8cf965fa61221cdf4aad5fe9695d1dea3dc82422cf74458,2615.1291370391846,False,keypress,testRsp,753,[],choice-response,Lab,617b99111dff2d27ea3d3ef3,Lab1,1541,307,DiscriminationTrials
607affb9d112a7e23c03a96d,Group_FJ,0,303f5f131605b1a0e8cf965fa61221cdf4aad5fe9695d1dea3dc82422cf74458,2615.1291370391846,False,keypress,testRsp,405,[],choice-response,Lap,617b99111dff2d27ea3d3ef3,Lab1,1042,308,DiscriminationTrials
607affb9d112a7e23c03a96d,Group_FJ,0,303f5f131605b1a0e8cf965fa61221cdf4aad5fe9695d1dea3dc82422cf74458,2615.1291370391846,False,keypress,testRsp,549,[],choice-response,Lab,617b99111dff2d27ea3d3ef3,Lab6,1279,309,DiscriminationTrials
607affb9d112a7e23c03a96d,Group_FJ,0,303f5f131605b1a0e8cf965fa61221cdf4aad5fe9695d1dea3dc82422cf74458,2615.1291370391846,False,keypress,testRsp,330,[],choice-response,Lab,617b99111dff2d27ea3d3ef3,Lab5,1059,310,DiscriminationTrials
607affb9d112a7e23c03a96d,Group_FJ,0,303f5f131605b1a0e8cf965fa61221cdf4aad5fe9695d1dea3dc82422cf74458,2615.1291370391846,False,keypress,testRsp,653,[],choice-response,Lab,617b99111dff2d27ea3d3ef3,Lab3,1341,311,DiscriminationTrials
607affb9d112a7e23c03a96d,Group_FJ,0,303f5f131605b1a0e8cf965fa61221cdf4aad5fe9695d1dea3dc82422cf74458,2615.1291370391846,False,keypress,testRsp,202,[],choice-response,Lab,617b99111dff2d27ea3d3ef3,Lab2,865,312,DiscriminationTrials
607affb9d112a7e23c03a96d,Group_FJ,0,303f5f131605b1a0e8cf965fa61221cdf4aad5fe9695d1dea3dc82422cf74458,2615.1291370391846,False,keypress,testRsp,508,[],choice-response,Lab,617b99111dff2d27ea3d3ef3,Lab8,1283,313,DiscriminationTrials
607affb9d112a7e23c03a96d,Group_FJ,0,303f5f131605b1a0e8cf965fa61221cdf4aad5fe9695d1dea3dc82422cf74458,2615.1291370391846,False,keypress,testRsp,345,[],choice-response,Lab,617b99111dff2d27ea3d3ef3,Lab4,1049,314,DiscriminationTrials
607affb9d112a7e23c03a96d,Group_FJ,0,303f5f131605b1a0e8cf965fa61221cdf4aad5fe9695d1dea3dc82422cf74458,2615.1291370391846,False,keypress,testRsp,611,[],choice-response,Lab,617b99111dff2d27ea3d3ef3,Lab7,1364,315,DiscriminationTrials
607affb9d112a7e23c03a96d,Group_FJ,0,303f5f131605b1a0e8cf965fa61221cdf4aad5fe9695d1dea3dc82422cf74458,2615.1291370391846,False,keypress,testRsp,136,[],choice-response,Lab,617b99111dff2d27ea3d3ef3,Lab6,1047,316,DiscriminationTrials
607affb9d112a7e23c03a96d,Group_FJ,0,303f5f131605b1a0e8cf965fa61221cdf4aad5fe9695d1dea3dc82422cf74458,2615.1291370391846,False,keypress,testRsp,361,[],choice-response,Lab,617b99111dff2d27ea3d3ef3,Lab4,1213,317,DiscriminationTrials
607affb9d112a7e23c03a96d,Group_FJ,0,303f5f131605b1a0e8cf965fa61221cdf4aad5fe9695d1dea3dc82422cf74458,2615.1291370391846,False,keypress,testRsp,398,[],choice-response,Lap,617b99111dff2d27ea3d3ef3,Lab3,1309,318,DiscriminationTrials
607affb9d112a7e23c03a96d,Group_FJ,0,303f5f131605b1a0e8cf965fa61221cdf4aad5fe9695d1dea3dc82422cf74458,2615.1291370391846,False,keypress,testRsp,352,[],choice-response,Lap,617b99111dff2d27ea3d3ef3,Lab2,1169,319,DiscriminationTrials
607affb9d112a7e23c03a96d,Group_FJ,0,303f5f131605b1a0e8cf965fa61221cdf4aad5fe9695d1dea3dc82422cf74458,2615.1291370391846,False,keypress,testRsp,433,[],choice-response,Lab,617b99111dff2d27ea3d3ef3,Lab7,1188,320,DiscriminationTrials
607affb9d112a7e23c03a96d,Group_FJ,0,303f5f131605b1a0e8cf965fa61221cdf4aad5fe9695d1dea3dc82422cf74458,2615.1291370391846,False,keypress,testRsp,482,[],choice-response,Lap,617b99111dff2d27ea3d3ef3,Lab1,1420,321,DiscriminationTrials
607affb9d112a7e23c03a96d,Group_FJ,0,303f5f131605b1a0e8cf965fa61221cdf4aad5fe9695d1dea3dc82422cf74458,2615.1291370391846,False,keypress,testRsp,179,[],choice-response,Lab,617b99111dff2d27ea3d3ef3,Lab8,1132,322,DiscriminationTrials
607affb9d112a7e23c03a96d,Group_FJ,0,303f5f131605b1a0e8cf965fa61221cdf4aad5fe9695d1dea3dc82422cf74458,2615.1291370391846,False,keypress,testRsp,415,[],choice-response,Lab,617b99111dff2d27ea3d3ef3,Lab5,1348,323,DiscriminationTrials
607affb9d112a7e23c03a96d,Group_FJ,0,303f5f131605b1a0e8cf965fa61221cdf4aad5fe9695d1dea3dc82422cf74458,2615.1291370391846,False,keypress,testRsp,289,[],choice-response,Lab,617b99111dff2d27ea3d3ef3,Lab4,1131,324,DiscriminationTrials
607affb9d112a7e23c03a96d,Group_FJ,0,303f5f131605b1a0e8cf965fa61221cdf4aad5fe9695d1dea3dc82422cf74458,2615.1291370391846,False,keypress,testRsp,387,[],choice-response,Lab,617b99111dff2d27ea3d3ef3,Lab7,1299,325,DiscriminationTrials
607affb9d112a7e23c03a96d,Group_FJ,0,303f5f131605b1a0e8cf965fa61221cdf4aad5fe9695d1dea3dc82422cf74458,2615.1291370391846,False,keypress,testRsp,347,[],choice-response,Lap,617b99111dff2d27ea3d3ef3,Lab3,1334,326,DiscriminationTrials
607affb9d112a7e23c03a96d,Group_FJ,0,303f5f131605b1a0e8cf965fa61221cdf4aad5fe9695d1dea3dc82422cf74458,2615.1291370391846,False,keypress,testRsp,485,[],choice-response,Lap,617b99111dff2d27ea3d3ef3,Lab5,1219,327,DiscriminationTrials
607affb9d112a7e23c03a96d,Group_FJ,0,303f5f131605b1a0e8cf965fa61221cdf4aad5fe9695d1dea3dc82422cf74458,2615.1291370391846,False,keypress,testRsp,894,[],choice-response,Lap,617b99111dff2d27ea3d3ef3,Lab8,1674,328,DiscriminationTrials
607affb9d112a7e23c03a96d,Group_FJ,0,303f5f131605b1a0e8cf965fa61221cdf4aad5fe9695d1dea3dc82422cf74458,2615.1291370391846,False,keypress,testRsp,639,[],choice-response,Lap,617b99111dff2d27ea3d3ef3,Lab6,1639,329,DiscriminationTrials
607affb9d112a7e23c03a96d,Group_FJ,0,303f5f131605b1a0e8cf965fa61221cdf4aad5fe9695d1dea3dc82422cf74458,2615.1291370391846,False,keypress,testRsp,824,[],choice-response,Lap,617b99111dff2d27ea3d3ef3,Lab2,1650,330,DiscriminationTrials
607affb9d112a7e23c03a96d,Group_FJ,0,303f5f131605b1a0e8cf965fa61221cdf4aad5fe9695d1dea3dc82422cf74458,2615.1291370391846,False,keypress,testRsp,278,[],choice-response,Lap,617b99111dff2d27ea3d3ef3,Lab1,1065,331,DiscriminationTrials
607affb9d112a7e23c03a96d,Group_FJ,0,303f5f131605b1a0e8cf965fa61221cdf4aad5fe9695d1dea3dc82422cf74458,2615.1291370391846,False,keypress,testRsp,255,[],choice-response,Lap,617b99111dff2d27ea3d3ef3,Lab2,921,332,DiscriminationTrials
607affb9d112a7e23c03a96d,Group_FJ,0,303f5f131605b1a0e8cf965fa61221cdf4aad5fe9695d1dea3dc82422cf74458,2615.1291370391846,False,keypress,testRsp,259,[],choice-response,Lab,617b99111dff2d27ea3d3ef3,Lab7,1013,333,DiscriminationTrials
607affb9d112a7e23c03a96d,Group_FJ,0,303f5f131605b1a0e8cf965fa61221cdf4aad5fe9695d1dea3dc82422cf74458,2615.1291370391846,False,keypress,testRsp,248,[],choice-response,Lab,617b99111dff2d27ea3d3ef3,Lab3,929,334,DiscriminationTrials
607affb9d112a7e23c03a96d,Group_FJ,0,303f5f131605b1a0e8cf965fa61221cdf4aad5fe9695d1dea3dc82422cf74458,2615.1291370391846,False,keypress,testRsp,429,[],choice-response,Lap,617b99111dff2d27ea3d3ef3,Lab1,1064,335,DiscriminationTrials
607affb9d112a7e23c03a96d,Group_FJ,0,303f5f131605b1a0e8cf965fa61221cdf4aad5fe9695d1dea3dc82422cf74458,2615.1291370391846,False,keypress,testRsp,647,[],choice-response,Lab,617b99111dff2d27ea3d3ef3,Lab4,1359,336,DiscriminationTrials
607affb9d112a7e23c03a96d,Group_FJ,0,303f5f131605b1a0e8cf965fa61221cdf4aad5fe9695d1dea3dc82422cf74458,2615.1291370391846,False,keypress,testRsp,394,[],choice-response,Lab,617b99111dff2d27ea3d3ef3,Lab8,1178,337,DiscriminationTrials
607affb9d112a7e23c03a96d,Group_FJ,0,303f5f131605b1a0e8cf965fa61221cdf4aad5fe9695d1dea3dc82422cf74458,2615.1291370391846,False,keypress,testRsp,542,[],choice-response,Lab,617b99111dff2d27ea3d3ef3,Lab6,1270,338,DiscriminationTrials
607affb9d112a7e23c03a96d,Group_FJ,0,303f5f131605b1a0e8cf965fa61221cdf4aad5fe9695d1dea3dc82422cf74458,2615.1291370391846,False,keypress,testRsp,428,[],choice-response,Lab,617b99111dff2d27ea3d3ef3,Lab5,1429,339,DiscriminationTrials
607affb9d112a7e23c03a96d,Group_FJ,0,303f5f131605b1a0e8cf965fa61221cdf4aad5fe9695d1dea3dc82422cf74458,2615.1291370391846,False,keypress,testRsp,171,[],choice-response,Lab,617b99111dff2d27ea3d3ef3,Lab6,909,340,DiscriminationTrials
607affb9d112a7e23c03a96d,Group_FJ,0,303f5f131605b1a0e8cf965fa61221cdf4aad5fe9695d1dea3dc82422cf74458,2615.1291370391846,False,keypress,testRsp,407,[],choice-response,Lap,617b99111dff2d27ea3d3ef3,Lab3,1225,341,DiscriminationTrials
607affb9d112a7e23c03a96d,Group_FJ,0,303f5f131605b1a0e8cf965fa61221cdf4aad5fe9695d1dea3dc82422cf74458,2615.1291370391846,False,keypress,testRsp,180,[],choice-response,Lab,617b99111dff2d27ea3d3ef3,Lab8,1092,342,DiscriminationTrials
607affb9d112a7e23c03a96d,Group_FJ,0,303f5f131605b1a0e8cf965fa61221cdf4aad5fe9695d1dea3dc82422cf74458,2615.1291370391846,False,keypress,testRsp,522,[],choice-response,Lap,617b99111dff2d27ea3d3ef3,Lab2,1387,343,DiscriminationTrials
607affb9d112a7e23c03a96d,Group_FJ,0,303f5f131605b1a0e8cf965fa61221cdf4aad5fe9695d1dea3dc82422cf74458,2615.1291370391846,False,keypress,testRsp,1501,[],choice-response,Lab,617b99111dff2d27ea3d3ef3,Lab7,2655,344,DiscriminationTrials
607affb9d112a7e23c03a96d,Group_FJ,0,303f5f131605b1a0e8cf965fa61221cdf4aad5fe9695d1dea3dc82422cf74458,2615.1291370391846,False,keypress,testRsp,447,[],choice-response,Lap,617b99111dff2d27ea3d3ef3,Lab1,1394,345,DiscriminationTrials
607affb9d112a7e23c03a96d,Group_FJ,0,303f5f131605b1a0e8cf965fa61221cdf4aad5fe9695d1dea3dc82422cf74458,2615.1291370391846,False,keypress,testRsp,858,[],choice-response,Lab,617b99111dff2d27ea3d3ef3,Lab4,1695,346,DiscriminationTrials
607affb9d112a7e23c03a96d,Group_FJ,0,303f5f131605b1a0e8cf965fa61221cdf4aad5fe9695d1dea3dc82422cf74458,2615.1291370391846,False,keypress,testRsp,302,[],choice-response,Lab,617b99111dff2d27ea3d3ef3,Lab5,1038,347,DiscriminationTrials
607affb9d112a7e23c03a96d,Group_FJ,0,303f5f131605b1a0e8cf965fa61221cdf4aad5fe9695d1dea3dc82422cf74458,2615.1291370391846,False,keypress,testRsp,704,[],choice-response,Lap,617b99111dff2d27ea3d3ef3,Lab3,1387,348,DiscriminationTrials
607affb9d112a7e23c03a96d,Group_FJ,0,303f5f131605b1a0e8cf965fa61221cdf4aad5fe9695d1dea3dc82422cf74458,2615.1291370391846,False,keypress,testRsp,494,[],choice-response,Lab,617b99111dff2d27ea3d3ef3,Lab8,1267,349,DiscriminationTrials
607affb9d112a7e23c03a96d,Group_FJ,0,303f5f131605b1a0e8cf965fa61221cdf4aad5fe9695d1dea3dc82422cf74458,2615.1291370391846,False,keypress,testRsp,610,[],choice-response,Lab,617b99111dff2d27ea3d3ef3,Lab7,1361,350,DiscriminationTrials
607affb9d112a7e23c03a96d,Group_FJ,0,303f5f131605b1a0e8cf965fa61221cdf4aad5fe9695d1dea3dc82422cf74458,2615.1291370391846,False,keypress,testRsp,484,[],choice-response,Lap,617b99111dff2d27ea3d3ef3,Lab4,1192,351,DiscriminationTrials
607affb9d112a7e23c03a96d,Group_FJ,0,303f5f131605b1a0e8cf965fa61221cdf4aad5fe9695d1dea3dc82422cf74458,2615.1291370391846,False,keypress,testRsp,336,[],choice-response,Lap,617b99111dff2d27ea3d3ef3,Lab2,995,352,DiscriminationTrials
607affb9d112a7e23c03a96d,Group_FJ,0,303f5f131605b1a0e8cf965fa61221cdf4aad5fe9695d1dea3dc82422cf74458,2615.1291370391846,False,keypress,testRsp,524,[],choice-response,Lap,617b99111dff2d27ea3d3ef3,Lab1,1163,353,DiscriminationTrials
607affb9d112a7e23c03a96d,Group_FJ,0,303f5f131605b1a0e8cf965fa61221cdf4aad5fe9695d1dea3dc82422cf74458,2615.1291370391846,False,keypress,testRsp,817,[],choice-response,Lap,617b99111dff2d27ea3d3ef3,Lab5,1547,354,DiscriminationTrials
607affb9d112a7e23c03a96d,Group_FJ,0,303f5f131605b1a0e8cf965fa61221cdf4aad5fe9695d1dea3dc82422cf74458,2615.1291370391846,False,keypress,testRsp,327,[],choice-response,Lab,617b99111dff2d27ea3d3ef3,Lab6,1055,355,DiscriminationTrials
607affb9d112a7e23c03a96d,Group_FJ,0,303f5f131605b1a0e8cf965fa61221cdf4aad5fe9695d1dea3dc82422cf74458,2615.1291370391846,False,keypress,testRsp,325,[],choice-response,Lap,617b99111dff2d27ea3d3ef3,Lab1,967,356,DiscriminationTrials
607affb9d112a7e23c03a96d,Group_FJ,0,303f5f131605b1a0e8cf965fa61221cdf4aad5fe9695d1dea3dc82422cf74458,2615.1291370391846,False,keypress,testRsp,419,[],choice-response,Lab,617b99111dff2d27ea3d3ef3,Lab8,1204,357,DiscriminationTrials
607affb9d112a7e23c03a96d,Group_FJ,0,303f5f131605b1a0e8cf965fa61221cdf4aad5fe9695d1dea3dc82422cf74458,2615.1291370391846,False,keypress,testRsp,398,[],choice-response,Lab,617b99111dff2d27ea3d3ef3,Lab7,1154,358,DiscriminationTrials
607affb9d112a7e23c03a96d,Group_FJ,0,303f5f131605b1a0e8cf965fa61221cdf4aad5fe9695d1dea3dc82422cf74458,2615.1291370391846,False,keypress,testRsp,475,[],choice-response,Lap,617b99111dff2d27ea3d3ef3,Lab2,1138,359,DiscriminationTrials
607affb9d112a7e23c03a96d,Group_FJ,0,303f5f131605b1a0e8cf965fa61221cdf4aad5fe9695d1dea3dc82422cf74458,2615.1291370391846,False,keypress,testRsp,482,[],choice-response,Lap,617b99111dff2d27ea3d3ef3,Lab4,1192,360,DiscriminationTrials
607affb9d112a7e23c03a96d,Group_FJ,0,303f5f131605b1a0e8cf965fa61221cdf4aad5fe9695d1dea3dc82422cf74458,2615.1291370391846,False,keypress,testRsp,516,[],choice-response,Lap,617b99111dff2d27ea3d3ef3,Lab5,1251,361,DiscriminationTrials
607affb9d112a7e23c03a96d,Group_FJ,0,303f5f131605b1a0e8cf965fa61221cdf4aad5fe9695d1dea3dc82422cf74458,2615.1291370391846,False,keypress,testRsp,126,[],choice-response,Lap,617b99111dff2d27ea3d3ef3,Lab3,968,362,DiscriminationTrials
607affb9d112a7e23c03a96d,Group_FJ,0,303f5f131605b1a0e8cf965fa61221cdf4aad5fe9695d1dea3dc82422cf74458,2615.1291370391846,False,keypress,testRsp,349,[],choice-response,Lab,617b99111dff2d27ea3d3ef3,Lab6,1231,363,DiscriminationTrials
607affb9d112a7e23c03a96d,Group_FJ,0,303f5f131605b1a0e8cf965fa61221cdf4aad5fe9695d1dea3dc82422cf74458,2615.1291370391846,False,keypress,exampleRsp,829,[],choice-response,Lab,617b99111dff2d27ea3d3ef3,ontime_Lab8,4174,364,example
607affb9d112a7e23c03a96d,Group_FJ,0,303f5f131605b1a0e8cf965fa61221cdf4aad5fe9695d1dea3dc82422cf74458,2615.1291370391846,False,keypress,exampleRsp,493,[],choice-response,Lap,617b99111dff2d27ea3d3ef3,ontime_Lab1,3722,365,example
607affb9d112a7e23c03a96d,Group_FJ,0,303f5f131605b1a0e8cf965fa61221cdf4aad5fe9695d1dea3dc82422cf74458,2615.1291370391846,False,keypress,exampleRsp,697,[],choice-response,Lap,617b99111dff2d27ea3d3ef3,ontime_Lab1,3445,366,example
607affb9d112a7e23c03a96d,Group_FJ,0,303f5f131605b1a0e8cf965fa61221cdf4aad5fe9695d1dea3dc82422cf74458,2615.1291370391846,False,keypress,exampleRsp,1451,[],choice-response,Lab,617b99111dff2d27ea3d3ef3,ontime_Lab8,4802,367,example
607affb9d112a7e23c03a96d,Group_FJ,0,303f5f131605b1a0e8cf965fa61221cdf4aad5fe9695d1dea3dc82422cf74458,2615.1291370391846,False,keypress,testRsp,1029,[],choice-response,Lab,617b99111dff2d27ea3d3ef3,ontime_Lab4,4050,368,maintaskTrials
607affb9d112a7e23c03a96d,Group_FJ,0,303f5f131605b1a0e8cf965fa61221cdf4aad5fe9695d1dea3dc82422cf74458,2615.1291370391846,False,keypress,testRsp,481,[],choice-response,Lab,617b99111dff2d27ea3d3ef3,late_Lab6,3488,369,maintaskTrials
607affb9d112a7e23c03a96d,Group_FJ,0,303f5f131605b1a0e8cf965fa61221cdf4aad5fe9695d1dea3dc82422cf74458,2615.1291370391846,False,keypress,testRsp,360,[],choice-response,Lap,617b99111dff2d27ea3d3ef3,early_Lab1,3483,370,maintaskTrials
607affb9d112a7e23c03a96d,Group_FJ,0,303f5f131605b1a0e8cf965fa61221cdf4aad5fe9695d1dea3dc82422cf74458,2615.1291370391846,False,keypress,testRsp,524,[],choice-response,Lab,617b99111dff2d27ea3d3ef3,early_Lab6,4022,371,maintaskTrials
607affb9d112a7e23c03a96d,Group_FJ,0,303f5f131605b1a0e8cf965fa61221cdf4aad5fe9695d1dea3dc82422cf74458,2615.1291370391846,False,keypress,testRsp,474,[],choice-response,Lap,617b99111dff2d27ea3d3ef3,late_Lab1,3406,372,maintaskTrials
607affb9d112a7e23c03a96d,Group_FJ,0,303f5f131605b1a0e8cf965fa61221cdf4aad5fe9695d1dea3dc82422cf74458,2615.1291370391846,False,keypress,testRsp,274,[],choice-response,Lab,617b99111dff2d27ea3d3ef3,ontime_Lab8,3413,373,maintaskTrials
607affb9d112a7e23c03a96d,Group_FJ,0,303f5f131605b1a0e8cf965fa61221cdf4aad5fe9695d1dea3dc82422cf74458,2615.1291370391846,False,keypress,testRsp,498,[],choice-response,Lap,617b99111dff2d27ea3d3ef3,early_Lab2,3396,374,maintaskTrials
607affb9d112a7e23c03a96d,Group_FJ,0,303f5f131605b1a0e8cf965fa61221cdf4aad5fe9695d1dea3dc82422cf74458,2615.1291370391846,False,keypress,testRsp,859,[],choice-response,Lab,617b99111dff2d27ea3d3ef3,late_Lab5,3869,375,maintaskTrials
607affb9d112a7e23c03a96d,Group_FJ,0,303f5f131605b1a0e8cf965fa61221cdf4aad5fe9695d1dea3dc82422cf74458,2615.1291370391846,False,keypress,testRsp,417,[],choice-response,Lab,617b99111dff2d27ea3d3ef3,early_Lab5,3447,376,maintaskTrials
607affb9d112a7e23c03a96d,Group_FJ,0,303f5f131605b1a0e8cf965fa61221cdf4aad5fe9695d1dea3dc82422cf74458,2615.1291370391846,False,keypress,testRsp,448,[],choice-response,Lab,617b99111dff2d27ea3d3ef3,early_Lab7,3439,377,maintaskTrials
607affb9d112a7e23c03a96d,Group_FJ,0,303f5f131605b1a0e8cf965fa61221cdf4aad5fe9695d1dea3dc82422cf74458,2615.1291370391846,False,keypress,testRsp,345,[],choice-response,Lap,617b99111dff2d27ea3d3ef3,ontime_Lab3,3278,378,maintaskTrials
607affb9d112a7e23c03a96d,Group_FJ,0,303f5f131605b1a0e8cf965fa61221cdf4aad5fe9695d1dea3dc82422cf74458,2615.1291370391846,False,keypress,testRsp,415,[],choice-response,Lap,617b99111dff2d27ea3d3ef3,late_Lab4,3371,379,maintaskTrials
607affb9d112a7e23c03a96d,Group_FJ,0,303f5f131605b1a0e8cf965fa61221cdf4aad5fe9695d1dea3dc82422cf74458,2615.1291370391846,False,keypress,testRsp,481,[],choice-response,Lab,617b99111dff2d27ea3d3ef3,ontime_Lab6,3493,380,maintaskTrials
607affb9d112a7e23c03a96d,Group_FJ,0,303f5f131605b1a0e8cf965fa61221cdf4aad5fe9695d1dea3dc82422cf74458,2615.1291370391846,False,keypress,testRsp,453,[],choice-response,Lap,617b99111dff2d27ea3d3ef3,early_Lab3,3383,381,maintaskTrials
607affb9d112a7e23c03a96d,Group_FJ,0,303f5f131605b1a0e8cf965fa61221cdf4aad5fe9695d1dea3dc82422cf74458,2615.1291370391846,False,keypress,testRsp,401,[],choice-response,Lab,617b99111dff2d27ea3d3ef3,ontime_Lab5,3392,382,maintaskTrials
607affb9d112a7e23c03a96d,Group_FJ,0,303f5f131605b1a0e8cf965fa61221cdf4aad5fe9695d1dea3dc82422cf74458,2615.1291370391846,False,keypress,testRsp,375,[],choice-response,Lap,617b99111dff2d27ea3d3ef3,ontime_Lab2,3264,383,maintaskTrials
607affb9d112a7e23c03a96d,Group_FJ,0,303f5f131605b1a0e8cf965fa61221cdf4aad5fe9695d1dea3dc82422cf74458,2615.1291370391846,False,keypress,testRsp,929,[],choice-response,Lap,617b99111dff2d27ea3d3ef3,early_Lab4,3856,384,maintaskTrials
607affb9d112a7e23c03a96d,Group_FJ,0,303f5f131605b1a0e8cf965fa61221cdf4aad5fe9695d1dea3dc82422cf74458,2615.1291370391846,False,keypress,testRsp,260,[],choice-response,Lab,617b99111dff2d27ea3d3ef3,early_Lab8,3302,385,maintaskTrials
607affb9d112a7e23c03a96d,Group_FJ,0,303f5f131605b1a0e8cf965fa61221cdf4aad5fe9695d1dea3dc82422cf74458,2615.1291370391846,False,keypress,testRsp,621,[],choice-response,Lab,617b99111dff2d27ea3d3ef3,late_Lab7,3610,386,maintaskTrials
607affb9d112a7e23c03a96d,Group_FJ,0,303f5f131605b1a0e8cf965fa61221cdf4aad5fe9695d1dea3dc82422cf74458,2615.1291370391846,False,keypress,testRsp,854,[],choice-response,Lab,617b99111dff2d27ea3d3ef3,ontime_Lab7,3898,387,maintaskTrials
607affb9d112a7e23c03a96d,Group_FJ,0,303f5f131605b1a0e8cf965fa61221cdf4aad5fe9695d1dea3dc82422cf74458,2615.1291370391846,False,keypress,cat_catchRsp,10596,['Cat meowing'],choice-response,Dog barking,617b99111dff2d27ea3d3ef3,cat_meowing,13145,388,Catch_cat
607affb9d112a7e23c03a96d,Group_FJ,0,303f5f131605b1a0e8cf965fa61221cdf4aad5fe9695d1dea3dc82422cf74458,2615.1291370391846,False,keypress,testRsp,635,[],choice-response,Lap,617b99111dff2d27ea3d3ef3,late_Lab3,3563,389,maintaskTrials
607affb9d112a7e23c03a96d,Group_FJ,0,303f5f131605b1a0e8cf965fa61221cdf4aad5fe9695d1dea3dc82422cf74458,2615.1291370391846,False,keypress,testRsp,500,[],choice-response,Lap,617b99111dff2d27ea3d3ef3,ontime_Lab1,3394,390,maintaskTrials
607affb9d112a7e23c03a96d,Group_FJ,0,303f5f131605b1a0e8cf965fa61221cdf4aad5fe9695d1dea3dc82422cf74458,2615.1291370391846,False,keypress,testRsp,487,[],choice-response,Lab,617b99111dff2d27ea3d3ef3,late_Lab7,3525,391,maintaskTrials
607affb9d112a7e23c03a96d,Group_FJ,0,303f5f131605b1a0e8cf965fa61221cdf4aad5fe9695d1dea3dc82422cf74458,2615.1291370391846,False,keypress,testRsp,623,[],choice-response,Lab,617b99111dff2d27ea3d3ef3,late_Lab2,3519,392,maintaskTrials
607affb9d112a7e23c03a96d,Group_FJ,0,303f5f131605b1a0e8cf965fa61221cdf4aad5fe9695d1dea3dc82422cf74458,2615.1291370391846,False,keypress,testRsp,936,[],choice-response,Lab,617b99111dff2d27ea3d3ef3,early_Lab4,3871,393,maintaskTrials
607affb9d112a7e23c03a96d,Group_FJ,0,303f5f131605b1a0e8cf965fa61221cdf4aad5fe9695d1dea3dc82422cf74458,2615.1291370391846,False,keypress,testRsp,433,[],choice-response,Lap,617b99111dff2d27ea3d3ef3,late_Lab1,3357,394,maintaskTrials
607affb9d112a7e23c03a96d,Group_FJ,0,303f5f131605b1a0e8cf965fa61221cdf4aad5fe9695d1dea3dc82422cf74458,2615.1291370391846,False,keypress,testRsp,1965,[],choice-response,Lab,617b99111dff2d27ea3d3ef3,early_Lab6,4984,395,maintaskTrials
607affb9d112a7e23c03a96d,Group_FJ,0,303f5f131605b1a0e8cf965fa61221cdf4aad5fe9695d1dea3dc82422cf74458,2615.1291370391846,False,keypress,testRsp,338,[],choice-response,Lap,617b99111dff2d27ea3d3ef3,early_Lab1,3267,396,maintaskTrials
607affb9d112a7e23c03a96d,Group_FJ,0,303f5f131605b1a0e8cf965fa61221cdf4aad5fe9695d1dea3dc82422cf74458,2615.1291370391846,False,keypress,testRsp,344,[],choice-response,Lab,617b99111dff2d27ea3d3ef3,ontime_Lab7,3357,397,maintaskTrials
607affb9d112a7e23c03a96d,Group_FJ,0,303f5f131605b1a0e8cf965fa61221cdf4aad5fe9695d1dea3dc82422cf74458,2615.1291370391846,False,keypress,testRsp,774,[],choice-response,Lab,617b99111dff2d27ea3d3ef3,early_Lab5,3733,398,maintaskTrials
607affb9d112a7e23c03a96d,Group_FJ,0,303f5f131605b1a0e8cf965fa61221cdf4aad5fe9695d1dea3dc82422cf74458,2615.1291370391846,False,keypress,testRsp,421,[],choice-response,Lap,617b99111dff2d27ea3d3ef3,early_Lab3,3340,399,maintaskTrials
607affb9d112a7e23c03a96d,Group_FJ,0,303f5f131605b1a0e8cf965fa61221cdf4aad5fe9695d1dea3dc82422cf74458,2615.1291370391846,False,keypress,testRsp,635,[],choice-response,Lab,617b99111dff2d27ea3d3ef3,late_Lab6,3634,400,maintaskTrials
607affb9d112a7e23c03a96d,Group_FJ,0,303f5f131605b1a0e8cf965fa61221cdf4aad5fe9695d1dea3dc82422cf74458,2615.1291370391846,False,keypress,testRsp,384,[],choice-response,Lab,617b99111dff2d27ea3d3ef3,ontime_Lab8,3415,401,maintaskTrials
607affb9d112a7e23c03a96d,Group_FJ,0,303f5f131605b1a0e8cf965fa61221cdf4aad5fe9695d1dea3dc82422cf74458,2615.1291370391846,False,keypress,testRsp,1104,[],choice-response,Lab,617b99111dff2d27ea3d3ef3,ontime_Lab4,4044,402,maintaskTrials
607affb9d112a7e23c03a96d,Group_FJ,0,303f5f131605b1a0e8cf965fa61221cdf4aad5fe9695d1dea3dc82422cf74458,2615.1291370391846,False,keypress,testRsp,1355,[],choice-response,Lab,617b99111dff2d27ea3d3ef3,late_Lab5,4352,403,maintaskTrials
607affb9d112a7e23c03a96d,Group_FJ,0,303f5f131605b1a0e8cf965fa61221cdf4aad5fe9695d1dea3dc82422cf74458,2615.1291370391846,False,keypress,testRsp,1147,[],choice-response,Lab,617b99111dff2d27ea3d3ef3,early_Lab7,4152,404,maintaskTrials
607affb9d112a7e23c03a96d,Group_FJ,0,303f5f131605b1a0e8cf965fa61221cdf4aad5fe9695d1dea3dc82422cf74458,2615.1291370391846,False,keypress,testRsp,819,[],choice-response,Lap,617b99111dff2d27ea3d3ef3,late_Lab7,3822,405,maintaskTrials
607affb9d112a7e23c03a96d,Group_FJ,0,303f5f131605b1a0e8cf965fa61221cdf4aad5fe9695d1dea3dc82422cf74458,2615.1291370391846,False,keypress,testRsp,1243,[],choice-response,Lap,617b99111dff2d27ea3d3ef3,early_Lab8,4280,406,maintaskTrials
607affb9d112a7e23c03a96d,Group_FJ,0,303f5f131605b1a0e8cf965fa61221cdf4aad5fe9695d1dea3dc82422cf74458,2615.1291370391846,False,keypress,testRsp,422,[],choice-response,Lap,617b99111dff2d27ea3d3ef3,ontime_Lab6,3513,407,maintaskTrials
607affb9d112a7e23c03a96d,Group_FJ,0,303f5f131605b1a0e8cf965fa61221cdf4aad5fe9695d1dea3dc82422cf74458,2615.1291370391846,False,keypress,testRsp,446,[],choice-response,Lab,617b99111dff2d27ea3d3ef3,ontime_Lab5,3417,408,maintaskTrials
607affb9d112a7e23c03a96d,Group_FJ,0,303f5f131605b1a0e8cf965fa61221cdf4aad5fe9695d1dea3dc82422cf74458,2615.1291370391846,False,keypress,cat_catchRsp,8569,['Cat meowing'],choice-response,Dog barking,617b99111dff2d27ea3d3ef3,cat_meowing,11105,409,Catch_cat
607affb9d112a7e23c03a96d,Group_FJ,0,303f5f131605b1a0e8cf965fa61221cdf4aad5fe9695d1dea3dc82422cf74458,2615.1291370391846,False,keypress,testRsp,599,[],choice-response,Lap,617b99111dff2d27ea3d3ef3,early_Lab2,3517,410,maintaskTrials
607affb9d112a7e23c03a96d,Group_FJ,0,303f5f131605b1a0e8cf965fa61221cdf4aad5fe9695d1dea3dc82422cf74458,2615.1291370391846,False,keypress,testRsp,1093,[],choice-response,Lab,617b99111dff2d27ea3d3ef3,late_Lab4,4039,411,maintaskTrials
607affb9d112a7e23c03a96d,Group_FJ,0,303f5f131605b1a0e8cf965fa61221cdf4aad5fe9695d1dea3dc82422cf74458,2615.1291370391846,False,keypress,testRsp,504,[],choice-response,Lap,617b99111dff2d27ea3d3ef3,ontime_Lab3,3420,412,maintaskTrials
607affb9d112a7e23c03a96d,Group_FJ,0,303f5f131605b1a0e8cf965fa61221cdf4aad5fe9695d1dea3dc82422cf74458,2615.1291370391846,False,keypress,testRsp,336,[],choice-response,Lap,617b99111dff2d27ea3d3ef3,late_Lab2,3231,413,maintaskTrials
607affb9d112a7e23c03a96d,Group_FJ,0,303f5f131605b1a0e8cf965fa61221cdf4aad5fe9695d1dea3dc82422cf74458,2615.1291370391846,False,keypress,testRsp,606,[],choice-response,Lab,617b99111dff2d27ea3d3ef3,late_Lab7,3624,414,maintaskTrials
607affb9d112a7e23c03a96d,Group_FJ,0,303f5f131605b1a0e8cf965fa61221cdf4aad5fe9695d1dea3dc82422cf74458,2615.1291370391846,False,keypress,testRsp,371,[],choice-response,Lap,617b99111dff2d27ea3d3ef3,late_Lab3,3276,415,maintaskTrials
607affb9d112a7e23c03a96d,Group_FJ,0,303f5f131605b1a0e8cf965fa61221cdf4aad5fe9695d1dea3dc82422cf74458,2615.1291370391846,False,keypress,testRsp,354,[],choice-response,Lap,617b99111dff2d27ea3d3ef3,ontime_Lab1,3269,416,maintaskTrials
607affb9d112a7e23c03a96d,Group_FJ,0,303f5f131605b1a0e8cf965fa61221cdf4aad5fe9695d1dea3dc82422cf74458,2615.1291370391846,False,keypress,testRsp,1489,[],choice-response,Lab,617b99111dff2d27ea3d3ef3,ontime_Lab2,4376,417,maintaskTrials
607affb9d112a7e23c03a96d,Group_FJ,0,303f5f131605b1a0e8cf965fa61221cdf4aad5fe9695d1dea3dc82422cf74458,2615.1291370391846,False,keypress,testRsp,433,[],choice-response,Lap,617b99111dff2d27ea3d3ef3,early_Lab1,3320,418,maintaskTrials
607affb9d112a7e23c03a96d,Group_FJ,0,303f5f131605b1a0e8cf965fa61221cdf4aad5fe9695d1dea3dc82422cf74458,2615.1291370391846,False,keypress,testRsp,405,[],choice-response,Lab,617b99111dff2d27ea3d3ef3,late_Lab7,3403,419,maintaskTrials
607affb9d112a7e23c03a96d,Group_FJ,0,303f5f131605b1a0e8cf965fa61221cdf4aad5fe9695d1dea3dc82422cf74458,2615.1291370391846,False,keypress,testRsp,511,[],choice-response,Lab,617b99111dff2d27ea3d3ef3,ontime_Lab4,4797,420,maintaskTrials
607affb9d112a7e23c03a96d,Group_FJ,0,303f5f131605b1a0e8cf965fa61221cdf4aad5fe9695d1dea3dc82422cf74458,2615.1291370391846,False,keypress,testRsp,372,[],choice-response,Lab,617b99111dff2d27ea3d3ef3,late_Lab7,3542,421,maintaskTrials
607affb9d112a7e23c03a96d,Group_FJ,0,303f5f131605b1a0e8cf965fa61221cdf4aad5fe9695d1dea3dc82422cf74458,2615.1291370391846,False,keypress,testRsp,360,[],choice-response,Lap,617b99111dff2d27ea3d3ef3,ontime_Lab1,3255,422,maintaskTrials
607affb9d112a7e23c03a96d,Group_FJ,0,303f5f131605b1a0e8cf965fa61221cdf4aad5fe9695d1dea3dc82422cf74458,2615.1291370391846,False,keypress,testRsp,864,[],choice-response,Lab,617b99111dff2d27ea3d3ef3,early_Lab2,3765,423,maintaskTrials
607affb9d112a7e23c03a96d,Group_FJ,0,303f5f131605b1a0e8cf965fa61221cdf4aad5fe9695d1dea3dc82422cf74458,2615.1291370391846,False,keypress,testRsp,430,[],choice-response,Lab,617b99111dff2d27ea3d3ef3,late_Lab6,3416,424,maintaskTrials
607affb9d112a7e23c03a96d,Group_FJ,0,303f5f131605b1a0e8cf965fa61221cdf4aad5fe9695d1dea3dc82422cf74458,2615.1291370391846,False,keypress,testRsp,510,[],choice-response,Lab,617b99111dff2d27ea3d3ef3,ontime_Lab5,3485,425,maintaskTrials
607affb9d112a7e23c03a96d,Group_FJ,0,303f5f131605b1a0e8cf965fa61221cdf4aad5fe9695d1dea3dc82422cf74458,2615.1291370391846,False,keypress,testRsp,732,[],choice-response,Lab,617b99111dff2d27ea3d3ef3,early_Lab6,3717,426,maintaskTrials
607affb9d112a7e23c03a96d,Group_FJ,0,303f5f131605b1a0e8cf965fa61221cdf4aad5fe9695d1dea3dc82422cf74458,2615.1291370391846,False,keypress,testRsp,461,[],choice-response,Lap,617b99111dff2d27ea3d3ef3,late_Lab3,3378,427,maintaskTrials
