,expt_id,group_id,network_error_repeat,participant_id,participation_duration,response_correct,response_mode,response_name,response_rt,response_target,response_type,response_value,session_id,stimuli_presented,trial_duration,trial_num,trial_template,task,sub_id,Correct,Shorter,main_task_easiest_pass,onset,delay,comparison,order,key
0,5ff0a827571a1af480c17fdc,Filled_empty,0,9254f32e77181c50ae514138bb57bbda3f192660754a01bb696b934ae71776c0,2939,True,keypress,testresponse_l_J,793.0,['Longer'],choice-response,Longer,6007b9b68ffa26e0d13be3ad,f300ms_delay_2_55,4801,19,f_maintaskTrials_2_l,maintaskTrials,9254f,1,0,True,5,2,5,empty,Filled
1,5ff0a827571a1af480c17fdc,Filled_empty,0,9254f32e77181c50ae514138bb57bbda3f192660754a01bb696b934ae71776c0,2939,False,keypress,testresponse_s_F,771.0,['Shorter'],choice-response,Longer,6007b9b68ffa26e0d13be3ad,f300ms_delay_2_53,4753,20,f_maintaskTrials_2_s,maintaskTrials,9254f,0,0,True,5,2,3,empty,Filled
2,5ff0a827571a1af480c17fdc,Filled_empty,0,9254f32e77181c50ae514138bb57bbda3f192660754a01bb696b934ae71776c0,2939,True,keypress,testresponse_l_J,2015.0,['Longer'],choice-response,Longer,6007b9b68ffa26e0d13be3ad,f300ms_delay_2_96,6609,21,f_maintaskTrials_2_l,maintaskTrials,9254f,1,0,True,9,2,6,empty,Filled
3,5ff0a827571a1af480c17fdc,Filled_empty,0,9254f32e77181c50ae514138bb57bbda3f192660754a01bb696b934ae71776c0,2939,True,keypress,testresponse_l_J,495.0,['Longer'],choice-response,Longer,6007b9b68ffa26e0d13be3ad,f300ms_delay_2_54,4592,22,f_maintaskTrials_2_l,maintaskTrials,9254f,1,0,True,5,2,4,empty,Filled
4,5ff0a827571a1af480c17fdc,Filled_empty,0,9254f32e77181c50ae514138bb57bbda3f192660754a01bb696b934ae71776c0,2939,True,keypress,testresponse_l_J,1360.0,['Longer'],choice-response,Longer,6007b9b68ffa26e0d13be3ad,f300ms_delay_2_95,5953,23,f_maintaskTrials_2_l,maintaskTrials,9254f,1,0,True,9,2,5,empty,Filled
5,5ff0a827571a1af480c17fdc,Filled_empty,0,9254f32e77181c50ae514138bb57bbda3f192660754a01bb696b934ae71776c0,2939,True,keypress,testresponse_l_J,2047.0,['Longer'],choice-response,Longer,6007b9b68ffa26e0d13be3ad,f300ms_delay_2_84,6500,24,f_maintaskTrials_2_l,maintaskTrials,9254f,1,0,True,8,2,4,empty,Filled
6,5ff0a827571a1af480c17fdc,Filled_empty,0,9254f32e77181c50ae514138bb57bbda3f192660754a01bb696b934ae71776c0,2939,True,keypress,testresponse_l_J,717.0,['Longer'],choice-response,Longer,6007b9b68ffa26e0d13be3ad,f300ms_delay_2_94,4932,25,f_maintaskTrials_2_l,maintaskTrials,9254f,1,0,True,9,2,4,empty,Filled
7,5ff0a827571a1af480c17fdc,Filled_empty,0,9254f32e77181c50ae514138bb57bbda3f192660754a01bb696b934ae71776c0,2939,False,keypress,testresponse_s_F,2216.0,['Shorter'],choice-response,Longer,6007b9b68ffa26e0d13be3ad,f300ms_delay_2_52,6224,26,f_maintaskTrials_2_s,maintaskTrials,9254f,0,0,True,5,2,2,empty,Filled
8,5ff0a827571a1af480c17fdc,Filled_empty,0,9254f32e77181c50ae514138bb57bbda3f192660754a01bb696b934ae71776c0,2939,False,keypress,testresponse_s_F,1467.0,['Shorter'],choice-response,Longer,6007b9b68ffa26e0d13be3ad,f300ms_delay_2_92,6026,27,f_maintaskTrials_2_s,maintaskTrials,9254f,0,0,True,9,2,2,empty,Filled
9,5ff0a827571a1af480c17fdc,Filled_empty,0,9254f32e77181c50ae514138bb57bbda3f192660754a01bb696b934ae71776c0,2939,False,keypress,testresponse_s_F,2320.0,['Shorter'],choice-response,Longer,6007b9b68ffa26e0d13be3ad,f300ms_delay_2_91,6517,28,f_maintaskTrials_2_s,maintaskTrials,9254f,0,0,True,9,2,1,empty,Filled
10,5ff0a827571a1af480c17fdc,Filled_empty,0,9254f32e77181c50ae514138bb57bbda3f192660754a01bb696b934ae71776c0,2939,False,keypress,testresponse_s_F,742.0,['Shorter'],choice-response,Longer,6007b9b68ffa26e0d13be3ad,f300ms_delay_2_81,5175,29,f_maintaskTrials_2_s,maintaskTrials,9254f,0,0,True,8,2,1,empty,Filled
11,5ff0a827571a1af480c17fdc,Filled_empty,0,9254f32e77181c50ae514138bb57bbda3f192660754a01bb696b934ae71776c0,2939,True,keypress,testresponse_s_F,477.0,['Shorter'],choice-response,Shorter,6007b9b68ffa26e0d13be3ad,f300ms_delay_2_51,4437,30,f_maintaskTrials_2_s,maintaskTrials,9254f,1,1,True,5,2,1,empty,Filled
12,5ff0a827571a1af480c17fdc,Filled_empty,0,9254f32e77181c50ae514138bb57bbda3f192660754a01bb696b934ae71776c0,2939,True,keypress,testresponse_l_J,1744.0,['Longer'],choice-response,Longer,6007b9b68ffa26e0d13be3ad,f300ms_delay_2_56,5802,31,f_maintaskTrials_2_l,maintaskTrials,9254f,1,0,True,5,2,6,empty,Filled
13,5ff0a827571a1af480c17fdc,Filled_empty,0,9254f32e77181c50ae514138bb57bbda3f192660754a01bb696b934ae71776c0,2939,True,keypress,testresponse_s_F,962.0,['Shorter'],choice-response,Shorter,6007b9b68ffa26e0d13be3ad,f300ms_delay_2_93,5139,32,f_maintaskTrials_2_s,maintaskTrials,9254f,1,1,True,9,2,3,empty,Filled
14,5ff0a827571a1af480c17fdc,Filled_empty,0,9254f32e77181c50ae514138bb57bbda3f192660754a01bb696b934ae71776c0,2939,False,keypress,testresponse_s_F,521.0,['Shorter'],choice-response,Longer,6007b9b68ffa26e0d13be3ad,f300ms_delay_2_83,4607,33,f_maintaskTrials_2_s,maintaskTrials,9254f,0,0,True,8,2,3,empty,Filled
15,5ff0a827571a1af480c17fdc,Filled_empty,0,9254f32e77181c50ae514138bb57bbda3f192660754a01bb696b934ae71776c0,2939,True,keypress,testresponse_s_F,865.0,['Shorter'],choice-response,Shorter,6007b9b68ffa26e0d13be3ad,f300ms_delay_2_82,5070,34,f_maintaskTrials_2_s,maintaskTrials,9254f,1,1,True,8,2,2,empty,Filled
16,5ff0a827571a1af480c17fdc,Filled_empty,0,9254f32e77181c50ae514138bb57bbda3f192660754a01bb696b934ae71776c0,2939,False,keypress,testresponse_l_J,1072.0,['Longer'],choice-response,Shorter,6007b9b68ffa26e0d13be3ad,f300ms_delay_2_85,5210,35,f_maintaskTrials_2_l,maintaskTrials,9254f,0,1,True,8,2,5,empty,Filled
17,5ff0a827571a1af480c17fdc,Filled_empty,0,9254f32e77181c50ae514138bb57bbda3f192660754a01bb696b934ae71776c0,2939,True,keypress,testresponse_l_J,617.0,['Longer'],choice-response,Longer,6007b9b68ffa26e0d13be3ad,f300ms_delay_2_86,5273,36,f_maintaskTrials_2_l,maintaskTrials,9254f,1,0,True,8,2,6,empty,Filled
18,5ff0a827571a1af480c17fdc,Filled_empty,0,9254f32e77181c50ae514138bb57bbda3f192660754a01bb696b934ae71776c0,2939,True,keypress,testresponse_l_J,702.0,['Longer'],choice-response,Longer,6007b9b68ffa26e0d13be3ad,f300ms_delay_2_86,5259,37,f_maintaskTrials_2_l,maintaskTrials,9254f,1,0,True,8,2,6,empty,Filled
19,5ff0a827571a1af480c17fdc,Filled_empty,0,9254f32e77181c50ae514138bb57bbda3f192660754a01bb696b934ae71776c0,2939,False,keypress,testresponse_s_F,1445.0,['Shorter'],choice-response,Longer,6007b9b68ffa26e0d13be3ad,f300ms_delay_2_92,5662,38,f_maintaskTrials_2_s,maintaskTrials,9254f,0,0,True,9,2,2,empty,Filled
20,5ff0a827571a1af480c17fdc,Filled_empty,0,9254f32e77181c50ae514138bb57bbda3f192660754a01bb696b934ae71776c0,2939,False,keypress,testresponse_l_J,948.0,['Longer'],choice-response,Shorter,6007b9b68ffa26e0d13be3ad,f300ms_delay_2_56,5506,39,f_maintaskTrials_2_l,maintaskTrials,9254f,0,1,True,5,2,6,empty,Filled
21,5ff0a827571a1af480c17fdc,Filled_empty,0,9254f32e77181c50ae514138bb57bbda3f192660754a01bb696b934ae71776c0,2939,True,keypress,testresponse_s_F,1109.0,['Shorter'],choice-response,Shorter,6007b9b68ffa26e0d13be3ad,f300ms_delay_2_93,5421,40,f_maintaskTrials_2_s,maintaskTrials,9254f,1,1,True,9,2,3,empty,Filled
22,5ff0a827571a1af480c17fdc,Filled_empty,0,9254f32e77181c50ae514138bb57bbda3f192660754a01bb696b934ae71776c0,2939,True,keypress,testresponse_s_F,1113.0,['Shorter'],choice-response,Shorter,6007b9b68ffa26e0d13be3ad,f300ms_delay_2_53,5303,41,f_maintaskTrials_2_s,maintaskTrials,9254f,1,1,True,5,2,3,empty,Filled
23,5ff0a827571a1af480c17fdc,Filled_empty,0,9254f32e77181c50ae514138bb57bbda3f192660754a01bb696b934ae71776c0,2939,True,keypress,testresponse_l_J,552.0,['Longer'],choice-response,Longer,6007b9b68ffa26e0d13be3ad,f300ms_delay_2_54,4592,42,f_maintaskTrials_2_l,maintaskTrials,9254f,1,0,True,5,2,4,empty,Filled
24,5ff0a827571a1af480c17fdc,Filled_empty,0,9254f32e77181c50ae514138bb57bbda3f192660754a01bb696b934ae71776c0,2939,True,keypress,testresponse_l_J,727.0,['Longer'],choice-response,Longer,6007b9b68ffa26e0d13be3ad,f300ms_delay_2_96,5605,43,f_maintaskTrials_2_l,maintaskTrials,9254f,1,0,True,9,2,6,empty,Filled
25,5ff0a827571a1af480c17fdc,Filled_empty,0,9254f32e77181c50ae514138bb57bbda3f192660754a01bb696b934ae71776c0,2939,True,keypress,testresponse_s_F,1043.0,['Shorter'],choice-response,Shorter,6007b9b68ffa26e0d13be3ad,f300ms_delay_2_82,5191,44,f_maintaskTrials_2_s,maintaskTrials,9254f,1,1,True,8,2,2,empty,Filled
26,5ff0a827571a1af480c17fdc,Filled_empty,0,9254f32e77181c50ae514138bb57bbda3f192660754a01bb696b934ae71776c0,2939,True,keypress,testresponse_s_F,646.0,['Shorter'],choice-response,Shorter,6007b9b68ffa26e0d13be3ad,f300ms_delay_2_51,4691,45,f_maintaskTrials_2_s,maintaskTrials,9254f,1,1,True,5,2,1,empty,Filled
27,5ff0a827571a1af480c17fdc,Filled_empty,0,9254f32e77181c50ae514138bb57bbda3f192660754a01bb696b934ae71776c0,2939,False,keypress,testresponse_l_J,1414.0,['Longer'],choice-response,Shorter,6007b9b68ffa26e0d13be3ad,f300ms_delay_2_84,5471,46,f_maintaskTrials_2_l,maintaskTrials,9254f,0,1,True,8,2,4,empty,Filled
28,5ff0a827571a1af480c17fdc,Filled_empty,0,9254f32e77181c50ae514138bb57bbda3f192660754a01bb696b934ae71776c0,2939,False,keypress,testresponse_l_J,505.0,['Longer'],choice-response,Shorter,6007b9b68ffa26e0d13be3ad,f300ms_delay_2_95,4672,47,f_maintaskTrials_2_l,maintaskTrials,9254f,0,1,True,9,2,5,empty,Filled
29,5ff0a827571a1af480c17fdc,Filled_empty,0,9254f32e77181c50ae514138bb57bbda3f192660754a01bb696b934ae71776c0,2939,False,keypress,testresponse_l_J,866.0,['Longer'],choice-response,Shorter,6007b9b68ffa26e0d13be3ad,f300ms_delay_2_85,5086,48,f_maintaskTrials_2_l,maintaskTrials,9254f,0,1,True,8,2,5,empty,Filled
30,5ff0a827571a1af480c17fdc,Filled_empty,0,9254f32e77181c50ae514138bb57bbda3f192660754a01bb696b934ae71776c0,2939,True,keypress,testresponse_l_J,312.0,['Longer'],choice-response,Longer,6007b9b68ffa26e0d13be3ad,f300ms_delay_2_94,4729,49,f_maintaskTrials_2_l,maintaskTrials,9254f,1,0,True,9,2,4,empty,Filled
31,5ff0a827571a1af480c17fdc,Filled_empty,0,9254f32e77181c50ae514138bb57bbda3f192660754a01bb696b934ae71776c0,2939,False,keypress,testresponse_l_J,607.0,['Longer'],choice-response,Shorter,6007b9b68ffa26e0d13be3ad,f300ms_delay_2_55,4657,50,f_maintaskTrials_2_l,maintaskTrials,9254f,0,1,True,5,2,5,empty,Filled
32,5ff0a827571a1af480c17fdc,Filled_empty,0,9254f32e77181c50ae514138bb57bbda3f192660754a01bb696b934ae71776c0,2939,True,keypress,testresponse_s_F,891.0,['Shorter'],choice-response,Shorter,6007b9b68ffa26e0d13be3ad,f300ms_delay_2_91,5395,51,f_maintaskTrials_2_s,maintaskTrials,9254f,1,1,True,9,2,1,empty,Filled
33,5ff0a827571a1af480c17fdc,Filled_empty,0,9254f32e77181c50ae514138bb57bbda3f192660754a01bb696b934ae71776c0,2939,True,keypress,testresponse_s_F,815.0,['Shorter'],choice-response,Shorter,6007b9b68ffa26e0d13be3ad,f300ms_delay_2_83,4906,52,f_maintaskTrials_2_s,maintaskTrials,9254f,1,1,True,8,2,3,empty,Filled
34,5ff0a827571a1af480c17fdc,Filled_empty,0,9254f32e77181c50ae514138bb57bbda3f192660754a01bb696b934ae71776c0,2939,True,keypress,testresponse_s_F,589.0,['Shorter'],choice-response,Shorter,6007b9b68ffa26e0d13be3ad,f300ms_delay_2_81,4629,53,f_maintaskTrials_2_s,maintaskTrials,9254f,1,1,True,8,2,1,empty,Filled
35,5ff0a827571a1af480c17fdc,Filled_empty,0,9254f32e77181c50ae514138bb57bbda3f192660754a01bb696b934ae71776c0,2939,True,keypress,testresponse_s_F,463.0,['Shorter'],choice-response,Shorter,6007b9b68ffa26e0d13be3ad,f300ms_delay_2_52,4428,54,f_maintaskTrials_2_s,maintaskTrials,9254f,1,1,True,5,2,2,empty,Filled
36,5ff0a827571a1af480c17fdc,Filled_empty,0,9254f32e77181c50ae514138bb57bbda3f192660754a01bb696b934ae71776c0,2939,True,keypress,testresponse_s_F,487.0,['Shorter'],choice-response,Shorter,6007b9b68ffa26e0d13be3ad,f300ms_delay_2_82,5925,55,f_maintaskTrials_2_s,maintaskTrials,9254f,1,1,True,8,2,2,empty,Filled
37,5ff0a827571a1af480c17fdc,Filled_empty,0,9254f32e77181c50ae514138bb57bbda3f192660754a01bb696b934ae71776c0,2939,False,keypress,testresponse_l_J,672.0,['Longer'],choice-response,Shorter,6007b9b68ffa26e0d13be3ad,f300ms_delay_2_55,4954,56,f_maintaskTrials_2_l,maintaskTrials,9254f,0,1,True,5,2,5,empty,Filled
38,5ff0a827571a1af480c17fdc,Filled_empty,0,9254f32e77181c50ae514138bb57bbda3f192660754a01bb696b934ae71776c0,2939,True,keypress,testresponse_l_J,597.0,['Longer'],choice-response,Longer,6007b9b68ffa26e0d13be3ad,f300ms_delay_2_95,4880,57,f_maintaskTrials_2_l,maintaskTrials,9254f,1,0,True,9,2,5,empty,Filled
39,5ff0a827571a1af480c17fdc,Filled_empty,0,9254f32e77181c50ae514138bb57bbda3f192660754a01bb696b934ae71776c0,2939,False,keypress,testresponse_l_J,891.0,['Longer'],choice-response,Shorter,6007b9b68ffa26e0d13be3ad,f300ms_delay_2_86,5363,58,f_maintaskTrials_2_l,maintaskTrials,9254f,0,1,True,8,2,6,empty,Filled
40,5ff0a827571a1af480c17fdc,Filled_empty,0,9254f32e77181c50ae514138bb57bbda3f192660754a01bb696b934ae71776c0,2939,True,keypress,testresponse_l_J,1032.0,['Longer'],choice-response,Longer,6007b9b68ffa26e0d13be3ad,f300ms_delay_2_54,5272,59,f_maintaskTrials_2_l,maintaskTrials,9254f,1,0,True,5,2,4,empty,Filled
41,5ff0a827571a1af480c17fdc,Filled_empty,0,9254f32e77181c50ae514138bb57bbda3f192660754a01bb696b934ae71776c0,2939,False,keypress,testresponse_s_F,1322.0,['Shorter'],choice-response,Longer,6007b9b68ffa26e0d13be3ad,f300ms_delay_2_51,5441,60,f_maintaskTrials_2_s,maintaskTrials,9254f,0,0,True,5,2,1,empty,Filled
42,5ff0a827571a1af480c17fdc,Filled_empty,0,9254f32e77181c50ae514138bb57bbda3f192660754a01bb696b934ae71776c0,2939,True,keypress,testresponse_l_J,569.0,['Longer'],choice-response,Longer,6007b9b68ffa26e0d13be3ad,f300ms_delay_2_84,4786,61,f_maintaskTrials_2_l,maintaskTrials,9254f,1,0,True,8,2,4,empty,Filled
43,5ff0a827571a1af480c17fdc,Filled_empty,0,9254f32e77181c50ae514138bb57bbda3f192660754a01bb696b934ae71776c0,2939,True,keypress,testresponse_l_J,457.0,['Longer'],choice-response,Longer,6007b9b68ffa26e0d13be3ad,f300ms_delay_2_85,4570,62,f_maintaskTrials_2_l,maintaskTrials,9254f,1,0,True,8,2,5,empty,Filled
44,5ff0a827571a1af480c17fdc,Filled_empty,0,9254f32e77181c50ae514138bb57bbda3f192660754a01bb696b934ae71776c0,2939,True,keypress,testresponse_l_J,499.0,['Longer'],choice-response,Longer,6007b9b68ffa26e0d13be3ad,f300ms_delay_2_94,4659,63,f_maintaskTrials_2_l,maintaskTrials,9254f,1,0,True,9,2,4,empty,Filled
45,5ff0a827571a1af480c17fdc,Filled_empty,0,9254f32e77181c50ae514138bb57bbda3f192660754a01bb696b934ae71776c0,2939,True,keypress,testresponse_s_F,1124.0,['Shorter'],choice-response,Shorter,6007b9b68ffa26e0d13be3ad,f300ms_delay_2_53,5563,64,f_maintaskTrials_2_s,maintaskTrials,9254f,1,1,True,5,2,3,empty,Filled
46,5ff0a827571a1af480c17fdc,Filled_empty,0,9254f32e77181c50ae514138bb57bbda3f192660754a01bb696b934ae71776c0,2939,True,keypress,testresponse_s_F,879.0,['Shorter'],choice-response,Shorter,6007b9b68ffa26e0d13be3ad,f300ms_delay_2_52,4843,65,f_maintaskTrials_2_s,maintaskTrials,9254f,1,1,True,5,2,2,empty,Filled
47,5ff0a827571a1af480c17fdc,Filled_empty,0,9254f32e77181c50ae514138bb57bbda3f192660754a01bb696b934ae71776c0,2939,True,keypress,testresponse_l_J,1537.0,['Longer'],choice-response,Longer,6007b9b68ffa26e0d13be3ad,f300ms_delay_2_96,5703,66,f_maintaskTrials_2_l,maintaskTrials,9254f,1,0,True,9,2,6,empty,Filled
48,5ff0a827571a1af480c17fdc,Filled_empty,0,9254f32e77181c50ae514138bb57bbda3f192660754a01bb696b934ae71776c0,2939,True,keypress,testresponse_s_F,1051.0,['Shorter'],choice-response,Shorter,6007b9b68ffa26e0d13be3ad,f300ms_delay_2_81,5094,67,f_maintaskTrials_2_s,maintaskTrials,9254f,1,1,True,8,2,1,empty,Filled
49,5ff0a827571a1af480c17fdc,Filled_empty,0,9254f32e77181c50ae514138bb57bbda3f192660754a01bb696b934ae71776c0,2939,False,keypress,testresponse_l_J,1653.0,['Longer'],choice-response,Shorter,6007b9b68ffa26e0d13be3ad,f300ms_delay_2_56,5648,68,f_maintaskTrials_2_l,maintaskTrials,9254f,0,1,True,5,2,6,empty,Filled
50,5ff0a827571a1af480c17fdc,Filled_empty,0,9254f32e77181c50ae514138bb57bbda3f192660754a01bb696b934ae71776c0,2939,True,keypress,testresponse_s_F,610.0,['Shorter'],choice-response,Shorter,6007b9b68ffa26e0d13be3ad,f300ms_delay_2_83,5282,69,f_maintaskTrials_2_s,maintaskTrials,9254f,1,1,True,8,2,3,empty,Filled
51,5ff0a827571a1af480c17fdc,Filled_empty,0,9254f32e77181c50ae514138bb57bbda3f192660754a01bb696b934ae71776c0,2939,False,keypress,testresponse_s_F,1142.0,['Shorter'],choice-response,Longer,6007b9b68ffa26e0d13be3ad,f300ms_delay_2_93,5728,70,f_maintaskTrials_2_s,maintaskTrials,9254f,0,0,True,9,2,3,empty,Filled
52,5ff0a827571a1af480c17fdc,Filled_empty,0,9254f32e77181c50ae514138bb57bbda3f192660754a01bb696b934ae71776c0,2939,False,keypress,testresponse_s_F,1021.0,['Shorter'],choice-response,Longer,6007b9b68ffa26e0d13be3ad,f300ms_delay_2_92,5159,71,f_maintaskTrials_2_s,maintaskTrials,9254f,0,0,True,9,2,2,empty,Filled
53,5ff0a827571a1af480c17fdc,Filled_empty,0,9254f32e77181c50ae514138bb57bbda3f192660754a01bb696b934ae71776c0,2939,True,keypress,testresponse_s_F,666.0,['Shorter'],choice-response,Shorter,6007b9b68ffa26e0d13be3ad,f300ms_delay_2_91,4776,72,f_maintaskTrials_2_s,maintaskTrials,9254f,1,1,True,9,2,1,empty,Filled
54,5ff0a827571a1af480c17fdc,Filled_empty,0,9254f32e77181c50ae514138bb57bbda3f192660754a01bb696b934ae71776c0,2939,False,keypress,testresponse_s_F,914.0,['Shorter'],choice-response,Longer,6007b9b68ffa26e0d13be3ad,f300ms_delay_2_83,4953,73,f_maintaskTrials_2_s,maintaskTrials,9254f,0,0,True,8,2,3,empty,Filled
55,5ff0a827571a1af480c17fdc,Filled_empty,0,9254f32e77181c50ae514138bb57bbda3f192660754a01bb696b934ae71776c0,2939,True,keypress,testresponse_s_F,961.0,['Shorter'],choice-response,Shorter,6007b9b68ffa26e0d13be3ad,f300ms_delay_2_82,4987,74,f_maintaskTrials_2_s,maintaskTrials,9254f,1,1,True,8,2,2,empty,Filled
56,5ff0a827571a1af480c17fdc,Filled_empty,0,9254f32e77181c50ae514138bb57bbda3f192660754a01bb696b934ae71776c0,2939,True,keypress,testresponse_s_F,972.0,['Shorter'],choice-response,Shorter,6007b9b68ffa26e0d13be3ad,f300ms_delay_2_91,5078,75,f_maintaskTrials_2_s,maintaskTrials,9254f,1,1,True,9,2,1,empty,Filled
57,5ff0a827571a1af480c17fdc,Filled_empty,0,9254f32e77181c50ae514138bb57bbda3f192660754a01bb696b934ae71776c0,2939,True,keypress,testresponse_s_F,368.0,['Shorter'],choice-response,Shorter,6007b9b68ffa26e0d13be3ad,f300ms_delay_2_92,4463,76,f_maintaskTrials_2_s,maintaskTrials,9254f,1,1,True,9,2,2,empty,Filled
58,5ff0a827571a1af480c17fdc,Filled_empty,0,9254f32e77181c50ae514138bb57bbda3f192660754a01bb696b934ae71776c0,2939,False,keypress,testresponse_l_J,440.0,['Longer'],choice-response,Shorter,6007b9b68ffa26e0d13be3ad,f300ms_delay_2_56,4863,77,f_maintaskTrials_2_l,maintaskTrials,9254f,0,1,True,5,2,6,empty,Filled
59,5ff0a827571a1af480c17fdc,Filled_empty,0,9254f32e77181c50ae514138bb57bbda3f192660754a01bb696b934ae71776c0,2939,True,keypress,testresponse_l_J,697.0,['Longer'],choice-response,Longer,6007b9b68ffa26e0d13be3ad,f300ms_delay_2_96,4877,78,f_maintaskTrials_2_l,maintaskTrials,9254f,1,0,True,9,2,6,empty,Filled
60,5ff0a827571a1af480c17fdc,Filled_empty,0,9254f32e77181c50ae514138bb57bbda3f192660754a01bb696b934ae71776c0,2939,True,keypress,testresponse_l_J,766.0,['Longer'],choice-response,Longer,6007b9b68ffa26e0d13be3ad,f300ms_delay_2_55,4819,79,f_maintaskTrials_2_l,maintaskTrials,9254f,1,0,True,5,2,5,empty,Filled
61,5ff0a827571a1af480c17fdc,Filled_empty,0,9254f32e77181c50ae514138bb57bbda3f192660754a01bb696b934ae71776c0,2939,True,keypress,testresponse_l_J,403.0,['Longer'],choice-response,Longer,6007b9b68ffa26e0d13be3ad,f300ms_delay_2_94,4701,80,f_maintaskTrials_2_l,maintaskTrials,9254f,1,0,True,9,2,4,empty,Filled
62,5ff0a827571a1af480c17fdc,Filled_empty,0,9254f32e77181c50ae514138bb57bbda3f192660754a01bb696b934ae71776c0,2939,False,keypress,testresponse_s_F,396.0,['Shorter'],choice-response,Longer,6007b9b68ffa26e0d13be3ad,f300ms_delay_2_53,4443,81,f_maintaskTrials_2_s,maintaskTrials,9254f,0,0,True,5,2,3,empty,Filled
63,5ff0a827571a1af480c17fdc,Filled_empty,0,9254f32e77181c50ae514138bb57bbda3f192660754a01bb696b934ae71776c0,2939,True,keypress,testresponse_s_F,2264.0,['Shorter'],choice-response,Shorter,6007b9b68ffa26e0d13be3ad,f300ms_delay_2_81,6420,82,f_maintaskTrials_2_s,maintaskTrials,9254f,1,1,True,8,2,1,empty,Filled
64,5ff0a827571a1af480c17fdc,Filled_empty,0,9254f32e77181c50ae514138bb57bbda3f192660754a01bb696b934ae71776c0,2939,True,keypress,testresponse_s_F,718.0,['Shorter'],choice-response,Shorter,6007b9b68ffa26e0d13be3ad,f300ms_delay_2_51,5114,83,f_maintaskTrials_2_s,maintaskTrials,9254f,1,1,True,5,2,1,empty,Filled
65,5ff0a827571a1af480c17fdc,Filled_empty,0,9254f32e77181c50ae514138bb57bbda3f192660754a01bb696b934ae71776c0,2939,True,keypress,testresponse_s_F,1052.0,['Shorter'],choice-response,Shorter,6007b9b68ffa26e0d13be3ad,f300ms_delay_2_93,5400,84,f_maintaskTrials_2_s,maintaskTrials,9254f,1,1,True,9,2,3,empty,Filled
66,5ff0a827571a1af480c17fdc,Filled_empty,0,9254f32e77181c50ae514138bb57bbda3f192660754a01bb696b934ae71776c0,2939,True,keypress,testresponse_l_J,1086.0,['Longer'],choice-response,Longer,6007b9b68ffa26e0d13be3ad,f300ms_delay_2_85,5167,85,f_maintaskTrials_2_l,maintaskTrials,9254f,1,0,True,8,2,5,empty,Filled
67,5ff0a827571a1af480c17fdc,Filled_empty,0,9254f32e77181c50ae514138bb57bbda3f192660754a01bb696b934ae71776c0,2939,False,keypress,testresponse_l_J,602.0,['Longer'],choice-response,Shorter,6007b9b68ffa26e0d13be3ad,f300ms_delay_2_95,4751,86,f_maintaskTrials_2_l,maintaskTrials,9254f,0,1,True,9,2,5,empty,Filled
68,5ff0a827571a1af480c17fdc,Filled_empty,0,9254f32e77181c50ae514138bb57bbda3f192660754a01bb696b934ae71776c0,2939,True,keypress,testresponse_s_F,1015.0,['Shorter'],choice-response,Shorter,6007b9b68ffa26e0d13be3ad,f300ms_delay_2_52,5007,87,f_maintaskTrials_2_s,maintaskTrials,9254f,1,1,True,5,2,2,empty,Filled
69,5ff0a827571a1af480c17fdc,Filled_empty,0,9254f32e77181c50ae514138bb57bbda3f192660754a01bb696b934ae71776c0,2939,True,keypress,testresponse_l_J,1463.0,['Longer'],choice-response,Longer,6007b9b68ffa26e0d13be3ad,f300ms_delay_2_84,5642,88,f_maintaskTrials_2_l,maintaskTrials,9254f,1,0,True,8,2,4,empty,Filled
70,5ff0a827571a1af480c17fdc,Filled_empty,0,9254f32e77181c50ae514138bb57bbda3f192660754a01bb696b934ae71776c0,2939,False,keypress,testresponse_l_J,1772.0,['Longer'],choice-response,Shorter,6007b9b68ffa26e0d13be3ad,f300ms_delay_2_86,5846,89,f_maintaskTrials_2_l,maintaskTrials,9254f,0,1,True,8,2,6,empty,Filled
71,5ff0a827571a1af480c17fdc,Filled_empty,0,9254f32e77181c50ae514138bb57bbda3f192660754a01bb696b934ae71776c0,2939,False,keypress,testresponse_l_J,936.0,['Longer'],choice-response,Shorter,6007b9b68ffa26e0d13be3ad,f300ms_delay_2_54,4893,90,f_maintaskTrials_2_l,maintaskTrials,9254f,0,1,True,5,2,4,empty,Filled
72,5ff0a827571a1af480c17fdc,Filled_empty,0,9254f32e77181c50ae514138bb57bbda3f192660754a01bb696b934ae71776c0,2939,True,keypress,testresponse_l_J,1537.0,['Longer'],choice-response,Longer,6007b9b68ffa26e0d13be3ad,f300ms_delay_2_85,5604,91,f_maintaskTrials_2_l,maintaskTrials,9254f,1,0,True,8,2,5,empty,Filled
73,5ff0a827571a1af480c17fdc,Filled_empty,0,9254f32e77181c50ae514138bb57bbda3f192660754a01bb696b934ae71776c0,2939,True,keypress,testresponse_l_J,909.0,['Longer'],choice-response,Longer,6007b9b68ffa26e0d13be3ad,f300ms_delay_2_94,5059,92,f_maintaskTrials_2_l,maintaskTrials,9254f,1,0,True,9,2,4,empty,Filled
74,5ff0a827571a1af480c17fdc,Filled_empty,0,9254f32e77181c50ae514138bb57bbda3f192660754a01bb696b934ae71776c0,2939,True,keypress,testresponse_s_F,1677.0,['Shorter'],choice-response,Shorter,6007b9b68ffa26e0d13be3ad,f300ms_delay_2_83,5750,93,f_maintaskTrials_2_s,maintaskTrials,9254f,1,1,True,8,2,3,empty,Filled
75,5ff0a827571a1af480c17fdc,Filled_empty,0,9254f32e77181c50ae514138bb57bbda3f192660754a01bb696b934ae71776c0,2939,True,keypress,testresponse_s_F,964.0,['Shorter'],choice-response,Shorter,6007b9b68ffa26e0d13be3ad,f300ms_delay_2_92,5078,94,f_maintaskTrials_2_s,maintaskTrials,9254f,1,1,True,9,2,2,empty,Filled
76,5ff0a827571a1af480c17fdc,Filled_empty,0,9254f32e77181c50ae514138bb57bbda3f192660754a01bb696b934ae71776c0,2939,True,keypress,testresponse_s_F,1317.0,['Shorter'],choice-response,Shorter,6007b9b68ffa26e0d13be3ad,f300ms_delay_2_82,5464,95,f_maintaskTrials_2_s,maintaskTrials,9254f,1,1,True,8,2,2,empty,Filled
77,5ff0a827571a1af480c17fdc,Filled_empty,0,9254f32e77181c50ae514138bb57bbda3f192660754a01bb696b934ae71776c0,2939,False,keypress,testresponse_s_F,1791.0,['Shorter'],choice-response,Longer,6007b9b68ffa26e0d13be3ad,f300ms_delay_2_81,6287,96,f_maintaskTrials_2_s,maintaskTrials,9254f,0,0,True,8,2,1,empty,Filled
78,5ff0a827571a1af480c17fdc,Filled_empty,0,9254f32e77181c50ae514138bb57bbda3f192660754a01bb696b934ae71776c0,2939,False,keypress,testresponse_l_J,1790.0,['Longer'],choice-response,Shorter,6007b9b68ffa26e0d13be3ad,f300ms_delay_2_55,5770,97,f_maintaskTrials_2_l,maintaskTrials,9254f,0,1,True,5,2,5,empty,Filled
79,5ff0a827571a1af480c17fdc,Filled_empty,0,9254f32e77181c50ae514138bb57bbda3f192660754a01bb696b934ae71776c0,2939,True,keypress,testresponse_l_J,1263.0,['Longer'],choice-response,Longer,6007b9b68ffa26e0d13be3ad,f300ms_delay_2_96,5480,98,f_maintaskTrials_2_l,maintaskTrials,9254f,1,0,True,9,2,6,empty,Filled
80,5ff0a827571a1af480c17fdc,Filled_empty,0,9254f32e77181c50ae514138bb57bbda3f192660754a01bb696b934ae71776c0,2939,False,keypress,testresponse_l_J,436.0,['Longer'],choice-response,Shorter,6007b9b68ffa26e0d13be3ad,f300ms_delay_2_84,4730,99,f_maintaskTrials_2_l,maintaskTrials,9254f,0,1,True,8,2,4,empty,Filled
81,5ff0a827571a1af480c17fdc,Filled_empty,0,9254f32e77181c50ae514138bb57bbda3f192660754a01bb696b934ae71776c0,2939,False,keypress,testresponse_l_J,1204.0,['Longer'],choice-response,Shorter,6007b9b68ffa26e0d13be3ad,f300ms_delay_2_56,5623,100,f_maintaskTrials_2_l,maintaskTrials,9254f,0,1,True,5,2,6,empty,Filled
82,5ff0a827571a1af480c17fdc,Filled_empty,0,9254f32e77181c50ae514138bb57bbda3f192660754a01bb696b934ae71776c0,2939,True,keypress,testresponse_s_F,789.0,['Shorter'],choice-response,Shorter,6007b9b68ffa26e0d13be3ad,f300ms_delay_2_51,4908,101,f_maintaskTrials_2_s,maintaskTrials,9254f,1,1,True,5,2,1,empty,Filled
83,5ff0a827571a1af480c17fdc,Filled_empty,0,9254f32e77181c50ae514138bb57bbda3f192660754a01bb696b934ae71776c0,2939,False,keypress,testresponse_s_F,645.0,['Shorter'],choice-response,Longer,6007b9b68ffa26e0d13be3ad,f300ms_delay_2_93,4752,102,f_maintaskTrials_2_s,maintaskTrials,9254f,0,0,True,9,2,3,empty,Filled
84,5ff0a827571a1af480c17fdc,Filled_empty,0,9254f32e77181c50ae514138bb57bbda3f192660754a01bb696b934ae71776c0,2939,False,keypress,testresponse_l_J,796.0,['Longer'],choice-response,Shorter,6007b9b68ffa26e0d13be3ad,f300ms_delay_2_95,4941,103,f_maintaskTrials_2_l,maintaskTrials,9254f,0,1,True,9,2,5,empty,Filled
85,5ff0a827571a1af480c17fdc,Filled_empty,0,9254f32e77181c50ae514138bb57bbda3f192660754a01bb696b934ae71776c0,2939,False,keypress,testresponse_s_F,1643.0,['Shorter'],choice-response,Longer,6007b9b68ffa26e0d13be3ad,f300ms_delay_2_53,6073,104,f_maintaskTrials_2_s,maintaskTrials,9254f,0,0,True,5,2,3,empty,Filled
86,5ff0a827571a1af480c17fdc,Filled_empty,0,9254f32e77181c50ae514138bb57bbda3f192660754a01bb696b934ae71776c0,2939,True,keypress,testresponse_s_F,1223.0,['Shorter'],choice-response,Shorter,6007b9b68ffa26e0d13be3ad,f300ms_delay_2_91,5791,105,f_maintaskTrials_2_s,maintaskTrials,9254f,1,1,True,9,2,1,empty,Filled
87,5ff0a827571a1af480c17fdc,Filled_empty,0,9254f32e77181c50ae514138bb57bbda3f192660754a01bb696b934ae71776c0,2939,True,keypress,testresponse_l_J,552.0,['Longer'],choice-response,Longer,6007b9b68ffa26e0d13be3ad,f300ms_delay_2_86,4630,106,f_maintaskTrials_2_l,maintaskTrials,9254f,1,0,True,8,2,6,empty,Filled
88,5ff0a827571a1af480c17fdc,Filled_empty,0,9254f32e77181c50ae514138bb57bbda3f192660754a01bb696b934ae71776c0,2939,True,keypress,testresponse_s_F,800.0,['Shorter'],choice-response,Shorter,6007b9b68ffa26e0d13be3ad,f300ms_delay_2_52,4761,107,f_maintaskTrials_2_s,maintaskTrials,9254f,1,1,True,5,2,2,empty,Filled
89,5ff0a827571a1af480c17fdc,Filled_empty,0,9254f32e77181c50ae514138bb57bbda3f192660754a01bb696b934ae71776c0,2939,True,keypress,testresponse_l_J,900.0,['Longer'],choice-response,Longer,6007b9b68ffa26e0d13be3ad,f300ms_delay_2_54,5296,108,f_maintaskTrials_2_l,maintaskTrials,9254f,1,0,True,5,2,4,empty,Filled
90,5ff0a827571a1af480c17fdc,Filled_empty,0,9254f32e77181c50ae514138bb57bbda3f192660754a01bb696b934ae71776c0,2939,True,keypress,testresponse_l_J,799.0,['Longer'],choice-response,Longer,6007b9b68ffa26e0d13be3ad,f300ms_delay_2_56,4966,109,f_maintaskTrials_2_l,maintaskTrials,9254f,1,0,True,5,2,6,empty,Filled
91,5ff0a827571a1af480c17fdc,Filled_empty,0,9254f32e77181c50ae514138bb57bbda3f192660754a01bb696b934ae71776c0,2939,True,keypress,testresponse_l_J,699.0,['Longer'],choice-response,Longer,6007b9b68ffa26e0d13be3ad,f300ms_delay_2_94,4882,110,f_maintaskTrials_2_l,maintaskTrials,9254f,1,0,True,9,2,4,empty,Filled
92,5ff0a827571a1af480c17fdc,Filled_empty,0,9254f32e77181c50ae514138bb57bbda3f192660754a01bb696b934ae71776c0,2939,True,keypress,testresponse_l_J,1665.0,['Longer'],choice-response,Longer,6007b9b68ffa26e0d13be3ad,f300ms_delay_2_95,5820,111,f_maintaskTrials_2_l,maintaskTrials,9254f,1,0,True,9,2,5,empty,Filled
93,5ff0a827571a1af480c17fdc,Filled_empty,0,9254f32e77181c50ae514138bb57bbda3f192660754a01bb696b934ae71776c0,2939,True,keypress,testresponse_s_F,648.0,['Shorter'],choice-response,Shorter,6007b9b68ffa26e0d13be3ad,f300ms_delay_2_81,4883,112,f_maintaskTrials_2_s,maintaskTrials,9254f,1,1,True,8,2,1,empty,Filled
94,5ff0a827571a1af480c17fdc,Filled_empty,0,9254f32e77181c50ae514138bb57bbda3f192660754a01bb696b934ae71776c0,2939,False,keypress,testresponse_s_F,1143.0,['Shorter'],choice-response,Longer,6007b9b68ffa26e0d13be3ad,f300ms_delay_2_52,5116,113,f_maintaskTrials_2_s,maintaskTrials,9254f,0,0,True,5,2,2,empty,Filled
95,5ff0a827571a1af480c17fdc,Filled_empty,0,9254f32e77181c50ae514138bb57bbda3f192660754a01bb696b934ae71776c0,2939,True,keypress,testresponse_s_F,755.0,['Shorter'],choice-response,Shorter,6007b9b68ffa26e0d13be3ad,f300ms_delay_2_82,4826,114,f_maintaskTrials_2_s,maintaskTrials,9254f,1,1,True,8,2,2,empty,Filled
96,5ff0a827571a1af480c17fdc,Filled_empty,0,9254f32e77181c50ae514138bb57bbda3f192660754a01bb696b934ae71776c0,2939,False,keypress,testresponse_s_F,616.0,['Shorter'],choice-response,Longer,6007b9b68ffa26e0d13be3ad,f300ms_delay_2_53,4610,115,f_maintaskTrials_2_s,maintaskTrials,9254f,0,0,True,5,2,3,empty,Filled
97,5ff0a827571a1af480c17fdc,Filled_empty,0,9254f32e77181c50ae514138bb57bbda3f192660754a01bb696b934ae71776c0,2939,True,keypress,testresponse_l_J,551.0,['Longer'],choice-response,Longer,6007b9b68ffa26e0d13be3ad,f300ms_delay_2_55,4513,116,f_maintaskTrials_2_l,maintaskTrials,9254f,1,0,True,5,2,5,empty,Filled
98,5ff0a827571a1af480c17fdc,Filled_empty,0,9254f32e77181c50ae514138bb57bbda3f192660754a01bb696b934ae71776c0,2939,True,keypress,testresponse_s_F,714.0,['Shorter'],choice-response,Shorter,6007b9b68ffa26e0d13be3ad,f300ms_delay_2_91,4804,117,f_maintaskTrials_2_s,maintaskTrials,9254f,1,1,True,9,2,1,empty,Filled
99,5ff0a827571a1af480c17fdc,Filled_empty,0,9254f32e77181c50ae514138bb57bbda3f192660754a01bb696b934ae71776c0,2939,False,keypress,testresponse_s_F,1080.0,['Shorter'],choice-response,Longer,6007b9b68ffa26e0d13be3ad,f300ms_delay_2_51,5282,118,f_maintaskTrials_2_s,maintaskTrials,9254f,0,0,True,5,2,1,empty,Filled
100,5ff0a827571a1af480c17fdc,Filled_empty,0,9254f32e77181c50ae514138bb57bbda3f192660754a01bb696b934ae71776c0,2939,False,keypress,testresponse_l_J,1106.0,['Longer'],choice-response,Shorter,6007b9b68ffa26e0d13be3ad,f300ms_delay_2_54,5115,119,f_maintaskTrials_2_l,maintaskTrials,9254f,0,1,True,5,2,4,empty,Filled
101,5ff0a827571a1af480c17fdc,Filled_empty,0,9254f32e77181c50ae514138bb57bbda3f192660754a01bb696b934ae71776c0,2939,True,keypress,testresponse_s_F,997.0,['Shorter'],choice-response,Shorter,6007b9b68ffa26e0d13be3ad,f300ms_delay_2_83,5471,120,f_maintaskTrials_2_s,maintaskTrials,9254f,1,1,True,8,2,3,empty,Filled
102,5ff0a827571a1af480c17fdc,Filled_empty,0,9254f32e77181c50ae514138bb57bbda3f192660754a01bb696b934ae71776c0,2939,True,keypress,testresponse_l_J,977.0,['Longer'],choice-response,Longer,6007b9b68ffa26e0d13be3ad,f300ms_delay_2_84,5516,121,f_maintaskTrials_2_l,maintaskTrials,9254f,1,0,True,8,2,4,empty,Filled
103,5ff0a827571a1af480c17fdc,Filled_empty,0,9254f32e77181c50ae514138bb57bbda3f192660754a01bb696b934ae71776c0,2939,False,keypress,testresponse_s_F,1564.0,['Shorter'],choice-response,Longer,6007b9b68ffa26e0d13be3ad,f300ms_delay_2_93,5696,122,f_maintaskTrials_2_s,maintaskTrials,9254f,0,0,True,9,2,3,empty,Filled
104,5ff0a827571a1af480c17fdc,Filled_empty,0,9254f32e77181c50ae514138bb57bbda3f192660754a01bb696b934ae71776c0,2939,True,keypress,testresponse_s_F,363.0,['Shorter'],choice-response,Shorter,6007b9b68ffa26e0d13be3ad,f300ms_delay_2_92,4569,123,f_maintaskTrials_2_s,maintaskTrials,9254f,1,1,True,9,2,2,empty,Filled
105,5ff0a827571a1af480c17fdc,Filled_empty,0,9254f32e77181c50ae514138bb57bbda3f192660754a01bb696b934ae71776c0,2939,False,keypress,testresponse_l_J,958.0,['Longer'],choice-response,Shorter,6007b9b68ffa26e0d13be3ad,f300ms_delay_2_85,5002,124,f_maintaskTrials_2_l,maintaskTrials,9254f,0,1,True,8,2,5,empty,Filled
106,5ff0a827571a1af480c17fdc,Filled_empty,0,9254f32e77181c50ae514138bb57bbda3f192660754a01bb696b934ae71776c0,2939,False,keypress,testresponse_l_J,1088.0,['Longer'],choice-response,Shorter,6007b9b68ffa26e0d13be3ad,f300ms_delay_2_86,5475,125,f_maintaskTrials_2_l,maintaskTrials,9254f,0,1,True,8,2,6,empty,Filled
107,5ff0a827571a1af480c17fdc,Filled_empty,0,9254f32e77181c50ae514138bb57bbda3f192660754a01bb696b934ae71776c0,2939,False,keypress,testresponse_l_J,1109.0,['Longer'],choice-response,Shorter,6007b9b68ffa26e0d13be3ad,f300ms_delay_2_96,5451,126,f_maintaskTrials_2_l,maintaskTrials,9254f,0,1,True,9,2,6,empty,Filled
108,5ff0a827571a1af480c17fdc,Filled_empty,0,9254f32e77181c50ae514138bb57bbda3f192660754a01bb696b934ae71776c0,2939,True,keypress,testresponse_l_J,639.0,['Longer'],choice-response,Longer,6007b9b68ffa26e0d13be3ad,f300ms_delay_2_86,4832,127,f_maintaskTrials_2_l,maintaskTrials,9254f,1,0,True,8,2,6,empty,Filled
109,5ff0a827571a1af480c17fdc,Filled_empty,0,9254f32e77181c50ae514138bb57bbda3f192660754a01bb696b934ae71776c0,2939,True,keypress,testresponse_l_J,1297.0,['Longer'],choice-response,Longer,6007b9b68ffa26e0d13be3ad,f300ms_delay_2_96,5522,128,f_maintaskTrials_2_l,maintaskTrials,9254f,1,0,True,9,2,6,empty,Filled
110,5ff0a827571a1af480c17fdc,Filled_empty,0,9254f32e77181c50ae514138bb57bbda3f192660754a01bb696b934ae71776c0,2939,True,keypress,testresponse_l_J,628.0,['Longer'],choice-response,Longer,6007b9b68ffa26e0d13be3ad,f300ms_delay_2_56,5252,129,f_maintaskTrials_2_l,maintaskTrials,9254f,1,0,True,5,2,6,empty,Filled
111,5ff0a827571a1af480c17fdc,Filled_empty,0,9254f32e77181c50ae514138bb57bbda3f192660754a01bb696b934ae71776c0,2939,True,keypress,testresponse_s_F,681.0,['Shorter'],choice-response,Shorter,6007b9b68ffa26e0d13be3ad,f300ms_delay_2_91,4800,130,f_maintaskTrials_2_s,maintaskTrials,9254f,1,1,True,9,2,1,empty,Filled
112,5ff0a827571a1af480c17fdc,Filled_empty,0,9254f32e77181c50ae514138bb57bbda3f192660754a01bb696b934ae71776c0,2939,True,keypress,testresponse_s_F,890.0,['Shorter'],choice-response,Shorter,6007b9b68ffa26e0d13be3ad,f300ms_delay_2_52,5319,131,f_maintaskTrials_2_s,maintaskTrials,9254f,1,1,True,5,2,2,empty,Filled
113,5ff0a827571a1af480c17fdc,Filled_empty,0,9254f32e77181c50ae514138bb57bbda3f192660754a01bb696b934ae71776c0,2939,True,keypress,testresponse_l_J,754.0,['Longer'],choice-response,Longer,6007b9b68ffa26e0d13be3ad,f300ms_delay_2_55,4719,132,f_maintaskTrials_2_l,maintaskTrials,9254f,1,0,True,5,2,5,empty,Filled
114,5ff0a827571a1af480c17fdc,Filled_empty,0,9254f32e77181c50ae514138bb57bbda3f192660754a01bb696b934ae71776c0,2939,True,keypress,testresponse_l_J,506.0,['Longer'],choice-response,Longer,6007b9b68ffa26e0d13be3ad,f300ms_delay_2_95,5097,133,f_maintaskTrials_2_l,maintaskTrials,9254f,1,0,True,9,2,5,empty,Filled
115,5ff0a827571a1af480c17fdc,Filled_empty,0,9254f32e77181c50ae514138bb57bbda3f192660754a01bb696b934ae71776c0,2939,False,keypress,testresponse_s_F,1517.0,['Shorter'],choice-response,Longer,6007b9b68ffa26e0d13be3ad,f300ms_delay_2_82,6013,134,f_maintaskTrials_2_s,maintaskTrials,9254f,0,0,True,8,2,2,empty,Filled
116,5ff0a827571a1af480c17fdc,Filled_empty,0,9254f32e77181c50ae514138bb57bbda3f192660754a01bb696b934ae71776c0,2939,False,keypress,testresponse_l_J,621.0,['Longer'],choice-response,Shorter,6007b9b68ffa26e0d13be3ad,f300ms_delay_2_54,4598,135,f_maintaskTrials_2_l,maintaskTrials,9254f,0,1,True,5,2,4,empty,Filled
117,5ff0a827571a1af480c17fdc,Filled_empty,0,9254f32e77181c50ae514138bb57bbda3f192660754a01bb696b934ae71776c0,2939,True,keypress,testresponse_s_F,1279.0,['Shorter'],choice-response,Shorter,6007b9b68ffa26e0d13be3ad,f300ms_delay_2_92,5405,136,f_maintaskTrials_2_s,maintaskTrials,9254f,1,1,True,9,2,2,empty,Filled
118,5ff0a827571a1af480c17fdc,Filled_empty,0,9254f32e77181c50ae514138bb57bbda3f192660754a01bb696b934ae71776c0,2939,True,keypress,testresponse_l_J,805.0,['Longer'],choice-response,Longer,6007b9b68ffa26e0d13be3ad,f300ms_delay_2_94,4956,137,f_maintaskTrials_2_l,maintaskTrials,9254f,1,0,True,9,2,4,empty,Filled
119,5ff0a827571a1af480c17fdc,Filled_empty,0,9254f32e77181c50ae514138bb57bbda3f192660754a01bb696b934ae71776c0,2939,True,keypress,testresponse_s_F,725.0,['Shorter'],choice-response,Shorter,6007b9b68ffa26e0d13be3ad,f300ms_delay_2_51,5113,138,f_maintaskTrials_2_s,maintaskTrials,9254f,1,1,True,5,2,1,empty,Filled
120,5ff0a827571a1af480c17fdc,Filled_empty,0,9254f32e77181c50ae514138bb57bbda3f192660754a01bb696b934ae71776c0,2939,True,keypress,testresponse_s_F,1076.0,['Shorter'],choice-response,Shorter,6007b9b68ffa26e0d13be3ad,f300ms_delay_2_53,5077,139,f_maintaskTrials_2_s,maintaskTrials,9254f,1,1,True,5,2,3,empty,Filled
121,5ff0a827571a1af480c17fdc,Filled_empty,0,9254f32e77181c50ae514138bb57bbda3f192660754a01bb696b934ae71776c0,2939,True,keypress,testresponse_s_F,2764.0,['Shorter'],choice-response,Shorter,6007b9b68ffa26e0d13be3ad,f300ms_delay_2_81,6777,140,f_maintaskTrials_2_s,maintaskTrials,9254f,1,1,True,8,2,1,empty,Filled
122,5ff0a827571a1af480c17fdc,Filled_empty,0,9254f32e77181c50ae514138bb57bbda3f192660754a01bb696b934ae71776c0,2939,True,keypress,testresponse_l_J,1077.0,['Longer'],choice-response,Longer,6007b9b68ffa26e0d13be3ad,f300ms_delay_2_85,5406,141,f_maintaskTrials_2_l,maintaskTrials,9254f,1,0,True,8,2,5,empty,Filled
123,5ff0a827571a1af480c17fdc,Filled_empty,0,9254f32e77181c50ae514138bb57bbda3f192660754a01bb696b934ae71776c0,2939,True,keypress,testresponse_l_J,1286.0,['Longer'],choice-response,Longer,6007b9b68ffa26e0d13be3ad,f300ms_delay_2_84,5423,142,f_maintaskTrials_2_l,maintaskTrials,9254f,1,0,True,8,2,4,empty,Filled
124,5ff0a827571a1af480c17fdc,Filled_empty,0,9254f32e77181c50ae514138bb57bbda3f192660754a01bb696b934ae71776c0,2939,False,keypress,testresponse_s_F,1339.0,['Shorter'],choice-response,Longer,6007b9b68ffa26e0d13be3ad,f300ms_delay_2_93,5912,143,f_maintaskTrials_2_s,maintaskTrials,9254f,0,0,True,9,2,3,empty,Filled
125,5ff0a827571a1af480c17fdc,Filled_empty,0,9254f32e77181c50ae514138bb57bbda3f192660754a01bb696b934ae71776c0,2939,False,keypress,testresponse_s_F,1013.0,['Shorter'],choice-response,Longer,6007b9b68ffa26e0d13be3ad,f300ms_delay_2_83,5573,144,f_maintaskTrials_2_s,maintaskTrials,9254f,0,0,True,8,2,3,empty,Filled
126,5ff0a827571a1af480c17fdc,Filled_empty,0,9254f32e77181c50ae514138bb57bbda3f192660754a01bb696b934ae71776c0,2939,True,keypress,testresponse_l_J,827.0,['Longer'],choice-response,Longer,6007b9b68ffa26e0d13be3ad,f300ms_delay_2_86,5006,145,f_maintaskTrials_2_l,maintaskTrials,9254f,1,0,True,8,2,6,empty,Filled
127,5ff0a827571a1af480c17fdc,Filled_empty,0,9254f32e77181c50ae514138bb57bbda3f192660754a01bb696b934ae71776c0,2939,True,keypress,testresponse_s_F,896.0,['Shorter'],choice-response,Shorter,6007b9b68ffa26e0d13be3ad,f300ms_delay_2_52,4840,146,f_maintaskTrials_2_s,maintaskTrials,9254f,1,1,True,5,2,2,empty,Filled
128,5ff0a827571a1af480c17fdc,Filled_empty,0,9254f32e77181c50ae514138bb57bbda3f192660754a01bb696b934ae71776c0,2939,True,keypress,testresponse_s_F,1501.0,['Shorter'],choice-response,Shorter,6007b9b68ffa26e0d13be3ad,f300ms_delay_2_91,5650,147,f_maintaskTrials_2_s,maintaskTrials,9254f,1,1,True,9,2,1,empty,Filled
129,5ff0a827571a1af480c17fdc,Filled_empty,0,9254f32e77181c50ae514138bb57bbda3f192660754a01bb696b934ae71776c0,2939,True,keypress,testresponse_s_F,1960.0,['Shorter'],choice-response,Shorter,6007b9b68ffa26e0d13be3ad,f300ms_delay_2_53,6379,148,f_maintaskTrials_2_s,maintaskTrials,9254f,1,1,True,5,2,3,empty,Filled
130,5ff0a827571a1af480c17fdc,Filled_empty,0,9254f32e77181c50ae514138bb57bbda3f192660754a01bb696b934ae71776c0,2939,False,keypress,testresponse_l_J,2146.0,['Longer'],choice-response,Shorter,6007b9b68ffa26e0d13be3ad,f300ms_delay_2_54,6149,149,f_maintaskTrials_2_l,maintaskTrials,9254f,0,1,True,5,2,4,empty,Filled
131,5ff0a827571a1af480c17fdc,Filled_empty,0,9254f32e77181c50ae514138bb57bbda3f192660754a01bb696b934ae71776c0,2939,False,keypress,testresponse_s_F,756.0,['Shorter'],choice-response,Longer,6007b9b68ffa26e0d13be3ad,f300ms_delay_2_83,5234,150,f_maintaskTrials_2_s,maintaskTrials,9254f,0,0,True,8,2,3,empty,Filled
132,5ff0a827571a1af480c17fdc,Filled_empty,0,9254f32e77181c50ae514138bb57bbda3f192660754a01bb696b934ae71776c0,2939,True,keypress,testresponse_l_J,1256.0,['Longer'],choice-response,Longer,6007b9b68ffa26e0d13be3ad,f300ms_delay_2_84,5716,151,f_maintaskTrials_2_l,maintaskTrials,9254f,1,0,True,8,2,4,empty,Filled
133,5ff0a827571a1af480c17fdc,Filled_empty,0,9254f32e77181c50ae514138bb57bbda3f192660754a01bb696b934ae71776c0,2939,True,keypress,testresponse_l_J,770.0,['Longer'],choice-response,Longer,6007b9b68ffa26e0d13be3ad,f300ms_delay_2_85,4815,152,f_maintaskTrials_2_l,maintaskTrials,9254f,1,0,True,8,2,5,empty,Filled
134,5ff0a827571a1af480c17fdc,Filled_empty,0,9254f32e77181c50ae514138bb57bbda3f192660754a01bb696b934ae71776c0,2939,True,keypress,testresponse_s_F,827.0,['Shorter'],choice-response,Shorter,6007b9b68ffa26e0d13be3ad,f300ms_delay_2_81,4845,153,f_maintaskTrials_2_s,maintaskTrials,9254f,1,1,True,8,2,1,empty,Filled
135,5ff0a827571a1af480c17fdc,Filled_empty,0,9254f32e77181c50ae514138bb57bbda3f192660754a01bb696b934ae71776c0,2939,False,keypress,testresponse_s_F,896.0,['Shorter'],choice-response,Longer,6007b9b68ffa26e0d13be3ad,f300ms_delay_2_92,5350,154,f_maintaskTrials_2_s,maintaskTrials,9254f,0,0,True,9,2,2,empty,Filled
136,5ff0a827571a1af480c17fdc,Filled_empty,0,9254f32e77181c50ae514138bb57bbda3f192660754a01bb696b934ae71776c0,2939,True,keypress,testresponse_l_J,1679.0,['Longer'],choice-response,Longer,6007b9b68ffa26e0d13be3ad,f300ms_delay_2_94,5851,155,f_maintaskTrials_2_l,maintaskTrials,9254f,1,0,True,9,2,4,empty,Filled
137,5ff0a827571a1af480c17fdc,Filled_empty,0,9254f32e77181c50ae514138bb57bbda3f192660754a01bb696b934ae71776c0,2939,False,keypress,testresponse_l_J,376.0,['Longer'],choice-response,Shorter,6007b9b68ffa26e0d13be3ad,f300ms_delay_2_56,4361,156,f_maintaskTrials_2_l,maintaskTrials,9254f,0,1,True,5,2,6,empty,Filled
138,5ff0a827571a1af480c17fdc,Filled_empty,0,9254f32e77181c50ae514138bb57bbda3f192660754a01bb696b934ae71776c0,2939,False,keypress,testresponse_l_J,394.0,['Longer'],choice-response,Shorter,6007b9b68ffa26e0d13be3ad,f300ms_delay_2_55,4852,157,f_maintaskTrials_2_l,maintaskTrials,9254f,0,1,True,5,2,5,empty,Filled
139,5ff0a827571a1af480c17fdc,Filled_empty,0,9254f32e77181c50ae514138bb57bbda3f192660754a01bb696b934ae71776c0,2939,False,keypress,testresponse_l_J,986.0,['Longer'],choice-response,Shorter,6007b9b68ffa26e0d13be3ad,f300ms_delay_2_96,5274,158,f_maintaskTrials_2_l,maintaskTrials,9254f,0,1,True,9,2,6,empty,Filled
140,5ff0a827571a1af480c17fdc,Filled_empty,0,9254f32e77181c50ae514138bb57bbda3f192660754a01bb696b934ae71776c0,2939,True,keypress,testresponse_s_F,819.0,['Shorter'],choice-response,Shorter,6007b9b68ffa26e0d13be3ad,f300ms_delay_2_51,5193,159,f_maintaskTrials_2_s,maintaskTrials,9254f,1,1,True,5,2,1,empty,Filled
141,5ff0a827571a1af480c17fdc,Filled_empty,0,9254f32e77181c50ae514138bb57bbda3f192660754a01bb696b934ae71776c0,2939,False,keypress,testresponse_s_F,1745.0,['Shorter'],choice-response,Longer,6007b9b68ffa26e0d13be3ad,f300ms_delay_2_82,6229,160,f_maintaskTrials_2_s,maintaskTrials,9254f,0,0,True,8,2,2,empty,Filled
142,5ff0a827571a1af480c17fdc,Filled_empty,0,9254f32e77181c50ae514138bb57bbda3f192660754a01bb696b934ae71776c0,2939,False,keypress,testresponse_l_J,1313.0,['Longer'],choice-response,Shorter,6007b9b68ffa26e0d13be3ad,f300ms_delay_2_95,5489,161,f_maintaskTrials_2_l,maintaskTrials,9254f,0,1,True,9,2,5,empty,Filled
143,5ff0a827571a1af480c17fdc,Filled_empty,0,9254f32e77181c50ae514138bb57bbda3f192660754a01bb696b934ae71776c0,2939,False,keypress,testresponse_s_F,1302.0,['Shorter'],choice-response,Longer,6007b9b68ffa26e0d13be3ad,f300ms_delay_2_93,5437,162,f_maintaskTrials_2_s,maintaskTrials,9254f,0,0,True,9,2,3,empty,Filled
144,5ff0a827571a1af480c17fdc,Filled_empty,0,9254f32e77181c50ae514138bb57bbda3f192660754a01bb696b934ae71776c0,2939,False,keypress,testresponse_l_J,1186.0,['Longer'],choice-response,Shorter,6007b9b68ffa26e0d13be3ad,f300ms_delay_2_84,5252,163,f_maintaskTrials_2_l,maintaskTrials,9254f,0,1,True,8,2,4,empty,Filled
145,5ff0a827571a1af480c17fdc,Filled_empty,0,9254f32e77181c50ae514138bb57bbda3f192660754a01bb696b934ae71776c0,2939,True,keypress,testresponse_l_J,923.0,['Longer'],choice-response,Longer,6007b9b68ffa26e0d13be3ad,f300ms_delay_2_56,5401,164,f_maintaskTrials_2_l,maintaskTrials,9254f,1,0,True,5,2,6,empty,Filled
146,5ff0a827571a1af480c17fdc,Filled_empty,0,9254f32e77181c50ae514138bb57bbda3f192660754a01bb696b934ae71776c0,2939,False,keypress,testresponse_s_F,1040.0,['Shorter'],choice-response,Longer,6007b9b68ffa26e0d13be3ad,f300ms_delay_2_93,5203,165,f_maintaskTrials_2_s,maintaskTrials,9254f,0,0,True,9,2,3,empty,Filled
147,5ff0a827571a1af480c17fdc,Filled_empty,0,9254f32e77181c50ae514138bb57bbda3f192660754a01bb696b934ae71776c0,2939,True,keypress,testresponse_l_J,1295.0,['Longer'],choice-response,Longer,6007b9b68ffa26e0d13be3ad,f300ms_delay_2_94,5644,166,f_maintaskTrials_2_l,maintaskTrials,9254f,1,0,True,9,2,4,empty,Filled
148,5ff0a827571a1af480c17fdc,Filled_empty,0,9254f32e77181c50ae514138bb57bbda3f192660754a01bb696b934ae71776c0,2939,False,keypress,testresponse_s_F,699.0,['Shorter'],choice-response,Longer,6007b9b68ffa26e0d13be3ad,f300ms_delay_2_53,4643,167,f_maintaskTrials_2_s,maintaskTrials,9254f,0,0,True,5,2,3,empty,Filled
149,5ff0a827571a1af480c17fdc,Filled_empty,0,9254f32e77181c50ae514138bb57bbda3f192660754a01bb696b934ae71776c0,2939,False,keypress,testresponse_l_J,726.0,['Longer'],choice-response,Shorter,6007b9b68ffa26e0d13be3ad,f300ms_delay_2_54,5157,168,f_maintaskTrials_2_l,maintaskTrials,9254f,0,1,True,5,2,4,empty,Filled
150,5ff0a827571a1af480c17fdc,Filled_empty,0,9254f32e77181c50ae514138bb57bbda3f192660754a01bb696b934ae71776c0,2939,False,keypress,testresponse_l_J,1577.0,['Longer'],choice-response,Shorter,6007b9b68ffa26e0d13be3ad,f300ms_delay_2_95,5982,169,f_maintaskTrials_2_l,maintaskTrials,9254f,0,1,True,9,2,5,empty,Filled
151,5ff0a827571a1af480c17fdc,Filled_empty,0,9254f32e77181c50ae514138bb57bbda3f192660754a01bb696b934ae71776c0,2939,False,keypress,testresponse_s_F,1192.0,['Shorter'],choice-response,Longer,6007b9b68ffa26e0d13be3ad,f300ms_delay_2_83,5708,170,f_maintaskTrials_2_s,maintaskTrials,9254f,0,0,True,8,2,3,empty,Filled
152,5ff0a827571a1af480c17fdc,Filled_empty,0,9254f32e77181c50ae514138bb57bbda3f192660754a01bb696b934ae71776c0,2939,True,keypress,testresponse_s_F,796.0,['Shorter'],choice-response,Shorter,6007b9b68ffa26e0d13be3ad,f300ms_delay_2_91,5394,171,f_maintaskTrials_2_s,maintaskTrials,9254f,1,1,True,9,2,1,empty,Filled
153,5ff0a827571a1af480c17fdc,Filled_empty,0,9254f32e77181c50ae514138bb57bbda3f192660754a01bb696b934ae71776c0,2939,True,keypress,testresponse_l_J,1035.0,['Longer'],choice-response,Longer,6007b9b68ffa26e0d13be3ad,f300ms_delay_2_96,5755,172,f_maintaskTrials_2_l,maintaskTrials,9254f,1,0,True,9,2,6,empty,Filled
154,5ff0a827571a1af480c17fdc,Filled_empty,0,9254f32e77181c50ae514138bb57bbda3f192660754a01bb696b934ae71776c0,2939,True,keypress,testresponse_s_F,700.0,['Shorter'],choice-response,Shorter,6007b9b68ffa26e0d13be3ad,f300ms_delay_2_81,4731,173,f_maintaskTrials_2_s,maintaskTrials,9254f,1,1,True,8,2,1,empty,Filled
155,5ff0a827571a1af480c17fdc,Filled_empty,0,9254f32e77181c50ae514138bb57bbda3f192660754a01bb696b934ae71776c0,2939,True,keypress,testresponse_s_F,900.0,['Shorter'],choice-response,Shorter,6007b9b68ffa26e0d13be3ad,f300ms_delay_2_82,5396,174,f_maintaskTrials_2_s,maintaskTrials,9254f,1,1,True,8,2,2,empty,Filled
156,5ff0a827571a1af480c17fdc,Filled_empty,0,9254f32e77181c50ae514138bb57bbda3f192660754a01bb696b934ae71776c0,2939,False,keypress,testresponse_s_F,1278.0,['Shorter'],choice-response,Longer,6007b9b68ffa26e0d13be3ad,f300ms_delay_2_52,5489,175,f_maintaskTrials_2_s,maintaskTrials,9254f,0,0,True,5,2,2,empty,Filled
157,5ff0a827571a1af480c17fdc,Filled_empty,0,9254f32e77181c50ae514138bb57bbda3f192660754a01bb696b934ae71776c0,2939,True,keypress,testresponse_s_F,1144.0,['Shorter'],choice-response,Shorter,6007b9b68ffa26e0d13be3ad,f300ms_delay_2_51,5081,176,f_maintaskTrials_2_s,maintaskTrials,9254f,1,1,True,5,2,1,empty,Filled
158,5ff0a827571a1af480c17fdc,Filled_empty,0,9254f32e77181c50ae514138bb57bbda3f192660754a01bb696b934ae71776c0,2939,False,keypress,testresponse_l_J,1219.0,['Longer'],choice-response,Shorter,6007b9b68ffa26e0d13be3ad,f300ms_delay_2_85,5716,177,f_maintaskTrials_2_l,maintaskTrials,9254f,0,1,True,8,2,5,empty,Filled
159,5ff0a827571a1af480c17fdc,Filled_empty,0,9254f32e77181c50ae514138bb57bbda3f192660754a01bb696b934ae71776c0,2939,False,keypress,testresponse_l_J,1642.0,['Longer'],choice-response,Shorter,6007b9b68ffa26e0d13be3ad,f300ms_delay_2_86,6173,178,f_maintaskTrials_2_l,maintaskTrials,9254f,0,1,True,8,2,6,empty,Filled
160,5ff0a827571a1af480c17fdc,Filled_empty,0,9254f32e77181c50ae514138bb57bbda3f192660754a01bb696b934ae71776c0,2939,True,keypress,testresponse_s_F,1156.0,['Shorter'],choice-response,Shorter,6007b9b68ffa26e0d13be3ad,f300ms_delay_2_92,5264,179,f_maintaskTrials_2_s,maintaskTrials,9254f,1,1,True,9,2,2,empty,Filled
161,5ff0a827571a1af480c17fdc,Filled_empty,0,9254f32e77181c50ae514138bb57bbda3f192660754a01bb696b934ae71776c0,2939,False,keypress,testresponse_l_J,603.0,['Longer'],choice-response,Shorter,6007b9b68ffa26e0d13be3ad,f300ms_delay_2_55,4578,180,f_maintaskTrials_2_l,maintaskTrials,9254f,0,1,True,5,2,5,empty,Filled
162,5ff0a827571a1af480c17fdc,Filled_empty,0,9254f32e77181c50ae514138bb57bbda3f192660754a01bb696b934ae71776c0,2939,False,keypress,testresponse_l_J,537.0,['Longer'],choice-response,Shorter,6007b9b68ffa26e0d13be3ad,f300ms_delay_2_84,4576,181,f_maintaskTrials_2_l,maintaskTrials,9254f,0,1,True,8,2,4,empty,Filled
163,5ff0a827571a1af480c17fdc,Filled_empty,0,9254f32e77181c50ae514138bb57bbda3f192660754a01bb696b934ae71776c0,2939,True,keypress,testresponse_l_J,1445.0,['Longer'],choice-response,Longer,6007b9b68ffa26e0d13be3ad,f300ms_delay_2_85,5717,182,f_maintaskTrials_2_l,maintaskTrials,9254f,1,0,True,8,2,5,empty,Filled
164,5ff0a827571a1af480c17fdc,Filled_empty,0,9254f32e77181c50ae514138bb57bbda3f192660754a01bb696b934ae71776c0,2939,True,keypress,testresponse_s_F,608.0,['Shorter'],choice-response,Shorter,6007b9b68ffa26e0d13be3ad,f300ms_delay_2_51,4551,183,f_maintaskTrials_2_s,maintaskTrials,9254f,1,1,True,5,2,1,empty,Filled
165,5ff0a827571a1af480c17fdc,Filled_empty,0,9254f32e77181c50ae514138bb57bbda3f192660754a01bb696b934ae71776c0,2939,True,keypress,testresponse_l_J,1483.0,['Longer'],choice-response,Longer,6007b9b68ffa26e0d13be3ad,f300ms_delay_2_86,5579,184,f_maintaskTrials_2_l,maintaskTrials,9254f,1,0,True,8,2,6,empty,Filled
166,5ff0a827571a1af480c17fdc,Filled_empty,0,9254f32e77181c50ae514138bb57bbda3f192660754a01bb696b934ae71776c0,2939,True,keypress,testresponse_s_F,703.0,['Shorter'],choice-response,Shorter,6007b9b68ffa26e0d13be3ad,f300ms_delay_2_81,4735,185,f_maintaskTrials_2_s,maintaskTrials,9254f,1,1,True,8,2,1,empty,Filled
167,5ff0a827571a1af480c17fdc,Filled_empty,0,9254f32e77181c50ae514138bb57bbda3f192660754a01bb696b934ae71776c0,2939,True,keypress,testresponse_s_F,776.0,['Shorter'],choice-response,Shorter,6007b9b68ffa26e0d13be3ad,f300ms_delay_2_52,4842,186,f_maintaskTrials_2_s,maintaskTrials,9254f,1,1,True,5,2,2,empty,Filled
168,5ff0a827571a1af480c17fdc,Filled_empty,0,9254f32e77181c50ae514138bb57bbda3f192660754a01bb696b934ae71776c0,2939,False,keypress,testresponse_s_F,1275.0,['Shorter'],choice-response,Longer,6007b9b68ffa26e0d13be3ad,f300ms_delay_2_83,5565,187,f_maintaskTrials_2_s,maintaskTrials,9254f,0,0,True,8,2,3,empty,Filled
169,5ff0a827571a1af480c17fdc,Filled_empty,0,9254f32e77181c50ae514138bb57bbda3f192660754a01bb696b934ae71776c0,2939,False,keypress,testresponse_s_F,1378.0,['Shorter'],choice-response,Longer,6007b9b68ffa26e0d13be3ad,f300ms_delay_2_82,5425,188,f_maintaskTrials_2_s,maintaskTrials,9254f,0,0,True,8,2,2,empty,Filled
170,5ff0a827571a1af480c17fdc,Filled_empty,0,9254f32e77181c50ae514138bb57bbda3f192660754a01bb696b934ae71776c0,2939,True,keypress,testresponse_s_F,1237.0,['Shorter'],choice-response,Shorter,6007b9b68ffa26e0d13be3ad,f300ms_delay_2_93,5867,189,f_maintaskTrials_2_s,maintaskTrials,9254f,1,1,True,9,2,3,empty,Filled
171,5ff0a827571a1af480c17fdc,Filled_empty,0,9254f32e77181c50ae514138bb57bbda3f192660754a01bb696b934ae71776c0,2939,False,keypress,testresponse_l_J,599.0,['Longer'],choice-response,Shorter,6007b9b68ffa26e0d13be3ad,f300ms_delay_2_54,4598,190,f_maintaskTrials_2_l,maintaskTrials,9254f,0,1,True,5,2,4,empty,Filled
172,5ff0a827571a1af480c17fdc,Filled_empty,0,9254f32e77181c50ae514138bb57bbda3f192660754a01bb696b934ae71776c0,2939,True,keypress,testresponse_s_F,1263.0,['Shorter'],choice-response,Shorter,6007b9b68ffa26e0d13be3ad,f300ms_delay_2_92,5466,191,f_maintaskTrials_2_s,maintaskTrials,9254f,1,1,True,9,2,2,empty,Filled
173,5ff0a827571a1af480c17fdc,Filled_empty,0,9254f32e77181c50ae514138bb57bbda3f192660754a01bb696b934ae71776c0,2939,False,keypress,testresponse_l_J,844.0,['Longer'],choice-response,Shorter,6007b9b68ffa26e0d13be3ad,f300ms_delay_2_55,4842,192,f_maintaskTrials_2_l,maintaskTrials,9254f,0,1,True,5,2,5,empty,Filled
174,5ff0a827571a1af480c17fdc,Filled_empty,0,9254f32e77181c50ae514138bb57bbda3f192660754a01bb696b934ae71776c0,2939,True,keypress,testresponse_l_J,913.0,['Longer'],choice-response,Longer,6007b9b68ffa26e0d13be3ad,f300ms_delay_2_56,4921,193,f_maintaskTrials_2_l,maintaskTrials,9254f,1,0,True,5,2,6,empty,Filled
175,5ff0a827571a1af480c17fdc,Filled_empty,0,9254f32e77181c50ae514138bb57bbda3f192660754a01bb696b934ae71776c0,2939,True,keypress,testresponse_l_J,513.0,['Longer'],choice-response,Longer,6007b9b68ffa26e0d13be3ad,f300ms_delay_2_94,5136,194,f_maintaskTrials_2_l,maintaskTrials,9254f,1,0,True,9,2,4,empty,Filled
176,5ff0a827571a1af480c17fdc,Filled_empty,0,9254f32e77181c50ae514138bb57bbda3f192660754a01bb696b934ae71776c0,2939,True,keypress,testresponse_l_J,809.0,['Longer'],choice-response,Longer,6007b9b68ffa26e0d13be3ad,f300ms_delay_2_95,4978,195,f_maintaskTrials_2_l,maintaskTrials,9254f,1,0,True,9,2,5,empty,Filled
177,5ff0a827571a1af480c17fdc,Filled_empty,0,9254f32e77181c50ae514138bb57bbda3f192660754a01bb696b934ae71776c0,2939,True,keypress,testresponse_l_J,1429.0,['Longer'],choice-response,Longer,6007b9b68ffa26e0d13be3ad,f300ms_delay_2_96,5814,196,f_maintaskTrials_2_l,maintaskTrials,9254f,1,0,True,9,2,6,empty,Filled
178,5ff0a827571a1af480c17fdc,Filled_empty,0,9254f32e77181c50ae514138bb57bbda3f192660754a01bb696b934ae71776c0,2939,True,keypress,testresponse_s_F,418.0,['Shorter'],choice-response,Shorter,6007b9b68ffa26e0d13be3ad,f300ms_delay_2_53,4421,197,f_maintaskTrials_2_s,maintaskTrials,9254f,1,1,True,5,2,3,empty,Filled
179,5ff0a827571a1af480c17fdc,Filled_empty,0,9254f32e77181c50ae514138bb57bbda3f192660754a01bb696b934ae71776c0,2939,True,keypress,testresponse_s_F,979.0,['Shorter'],choice-response,Shorter,6007b9b68ffa26e0d13be3ad,f300ms_delay_2_91,5072,198,f_maintaskTrials_2_s,maintaskTrials,9254f,1,1,True,9,2,1,empty,Filled
180,5ff0a827571a1af480c17fdc,Filled_empty,0,9254f32e77181c50ae514138bb57bbda3f192660754a01bb696b934ae71776c0,2939,True,keypress,testresponse_l_J,747.0,['Longer'],choice-response,Longer,6007b9b68ffa26e0d13be3ad,f300ms_delay_2_84,4792,199,f_maintaskTrials_2_l,maintaskTrials,9254f,1,0,True,8,2,4,empty,Filled
181,5ff0a827571a1af480c17fdc,Filled_empty,0,9254f32e77181c50ae514138bb57bbda3f192660754a01bb696b934ae71776c0,2939,True,keypress,testresponse_l_J,1144.0,['Longer'],choice-response,Longer,6007b9b68ffa26e0d13be3ad,f300ms_delay_2_94,5316,200,f_maintaskTrials_2_l,maintaskTrials,9254f,1,0,True,9,2,4,empty,Filled
182,5ff0a827571a1af480c17fdc,Filled_empty,0,9254f32e77181c50ae514138bb57bbda3f192660754a01bb696b934ae71776c0,2939,True,keypress,testresponse_l_J,1431.0,['Longer'],choice-response,Longer,6007b9b68ffa26e0d13be3ad,f300ms_delay_2_54,5438,201,f_maintaskTrials_2_l,maintaskTrials,9254f,1,0,True,5,2,4,empty,Filled
183,5ff0a827571a1af480c17fdc,Filled_empty,0,9254f32e77181c50ae514138bb57bbda3f192660754a01bb696b934ae71776c0,2939,False,keypress,testresponse_s_F,1211.0,['Shorter'],choice-response,Longer,6007b9b68ffa26e0d13be3ad,f300ms_delay_2_81,5827,202,f_maintaskTrials_2_s,maintaskTrials,9254f,0,0,True,8,2,1,empty,Filled
184,5ff0a827571a1af480c17fdc,Filled_empty,0,9254f32e77181c50ae514138bb57bbda3f192660754a01bb696b934ae71776c0,2939,True,keypress,testresponse_s_F,432.0,['Shorter'],choice-response,Shorter,6007b9b68ffa26e0d13be3ad,f300ms_delay_2_52,4459,203,f_maintaskTrials_2_s,maintaskTrials,9254f,1,1,True,5,2,2,empty,Filled
185,5ff0a827571a1af480c17fdc,Filled_empty,0,9254f32e77181c50ae514138bb57bbda3f192660754a01bb696b934ae71776c0,2939,True,keypress,testresponse_l_J,526.0,['Longer'],choice-response,Longer,6007b9b68ffa26e0d13be3ad,f300ms_delay_2_55,5034,204,f_maintaskTrials_2_l,maintaskTrials,9254f,1,0,True,5,2,5,empty,Filled
186,5ff0a827571a1af480c17fdc,Filled_empty,0,9254f32e77181c50ae514138bb57bbda3f192660754a01bb696b934ae71776c0,2939,True,keypress,testresponse_l_J,877.0,['Longer'],choice-response,Longer,6007b9b68ffa26e0d13be3ad,f300ms_delay_2_96,5481,205,f_maintaskTrials_2_l,maintaskTrials,9254f,1,0,True,9,2,6,empty,Filled
187,5ff0a827571a1af480c17fdc,Filled_empty,0,9254f32e77181c50ae514138bb57bbda3f192660754a01bb696b934ae71776c0,2939,True,keypress,testresponse_s_F,487.0,['Shorter'],choice-response,Shorter,6007b9b68ffa26e0d13be3ad,f300ms_delay_2_51,4444,206,f_maintaskTrials_2_s,maintaskTrials,9254f,1,1,True,5,2,1,empty,Filled
188,5ff0a827571a1af480c17fdc,Filled_empty,0,9254f32e77181c50ae514138bb57bbda3f192660754a01bb696b934ae71776c0,2939,True,keypress,testresponse_s_F,1070.0,['Shorter'],choice-response,Shorter,6007b9b68ffa26e0d13be3ad,f300ms_delay_2_92,5221,207,f_maintaskTrials_2_s,maintaskTrials,9254f,1,1,True,9,2,2,empty,Filled
189,5ff0a827571a1af480c17fdc,Filled_empty,0,9254f32e77181c50ae514138bb57bbda3f192660754a01bb696b934ae71776c0,2939,True,keypress,testresponse_s_F,803.0,['Shorter'],choice-response,Shorter,6007b9b68ffa26e0d13be3ad,f300ms_delay_2_91,4907,208,f_maintaskTrials_2_s,maintaskTrials,9254f,1,1,True,9,2,1,empty,Filled
190,5ff0a827571a1af480c17fdc,Filled_empty,0,9254f32e77181c50ae514138bb57bbda3f192660754a01bb696b934ae71776c0,2939,True,keypress,testresponse_l_J,700.0,['Longer'],choice-response,Longer,6007b9b68ffa26e0d13be3ad,f300ms_delay_2_86,5519,209,f_maintaskTrials_2_l,maintaskTrials,9254f,1,0,True,8,2,6,empty,Filled
191,5ff0a827571a1af480c17fdc,Filled_empty,0,9254f32e77181c50ae514138bb57bbda3f192660754a01bb696b934ae71776c0,2939,False,keypress,testresponse_s_F,985.0,['Shorter'],choice-response,Longer,6007b9b68ffa26e0d13be3ad,f300ms_delay_2_82,5011,210,f_maintaskTrials_2_s,maintaskTrials,9254f,0,0,True,8,2,2,empty,Filled
192,5ff0a827571a1af480c17fdc,Filled_empty,0,9254f32e77181c50ae514138bb57bbda3f192660754a01bb696b934ae71776c0,2939,True,keypress,testresponse_s_F,668.0,['Shorter'],choice-response,Shorter,6007b9b68ffa26e0d13be3ad,f300ms_delay_2_53,4751,211,f_maintaskTrials_2_s,maintaskTrials,9254f,1,1,True,5,2,3,empty,Filled
193,5ff0a827571a1af480c17fdc,Filled_empty,0,9254f32e77181c50ae514138bb57bbda3f192660754a01bb696b934ae71776c0,2939,True,keypress,testresponse_l_J,765.0,['Longer'],choice-response,Longer,6007b9b68ffa26e0d13be3ad,f300ms_delay_2_56,4971,212,f_maintaskTrials_2_l,maintaskTrials,9254f,1,0,True,5,2,6,empty,Filled
194,5ff0a827571a1af480c17fdc,Filled_empty,0,9254f32e77181c50ae514138bb57bbda3f192660754a01bb696b934ae71776c0,2939,True,keypress,testresponse_l_J,453.0,['Longer'],choice-response,Longer,6007b9b68ffa26e0d13be3ad,f300ms_delay_2_95,5053,213,f_maintaskTrials_2_l,maintaskTrials,9254f,1,0,True,9,2,5,empty,Filled
195,5ff0a827571a1af480c17fdc,Filled_empty,0,9254f32e77181c50ae514138bb57bbda3f192660754a01bb696b934ae71776c0,2939,True,keypress,testresponse_s_F,1726.0,['Shorter'],choice-response,Shorter,6007b9b68ffa26e0d13be3ad,f300ms_delay_2_93,5869,214,f_maintaskTrials_2_s,maintaskTrials,9254f,1,1,True,9,2,3,empty,Filled
196,5ff0a827571a1af480c17fdc,Filled_empty,0,9254f32e77181c50ae514138bb57bbda3f192660754a01bb696b934ae71776c0,2939,False,keypress,testresponse_l_J,800.0,['Longer'],choice-response,Shorter,6007b9b68ffa26e0d13be3ad,f300ms_delay_2_85,5336,215,f_maintaskTrials_2_l,maintaskTrials,9254f,0,1,True,8,2,5,empty,Filled
197,5ff0a827571a1af480c17fdc,Filled_empty,0,9254f32e77181c50ae514138bb57bbda3f192660754a01bb696b934ae71776c0,2939,True,keypress,testresponse_s_F,764.0,['Shorter'],choice-response,Shorter,6007b9b68ffa26e0d13be3ad,f300ms_delay_2_83,4839,216,f_maintaskTrials_2_s,maintaskTrials,9254f,1,1,True,8,2,3,empty,Filled
198,5ff0a827571a1af480c17fdc,Filled_empty,0,9254f32e77181c50ae514138bb57bbda3f192660754a01bb696b934ae71776c0,2939,True,keypress,testresponse_s_F,717.0,['Shorter'],choice-response,Shorter,6007b9b68ffa26e0d13be3ad,f300ms_delay_2_52,4679,217,f_maintaskTrials_2_s,maintaskTrials,9254f,1,1,True,5,2,2,empty,Filled
199,5ff0a827571a1af480c17fdc,Filled_empty,0,9254f32e77181c50ae514138bb57bbda3f192660754a01bb696b934ae71776c0,2939,False,keypress,testresponse_s_F,2118.0,['Shorter'],choice-response,Longer,6007b9b68ffa26e0d13be3ad,f300ms_delay_2_51,6532,218,f_maintaskTrials_2_s,maintaskTrials,9254f,0,0,True,5,2,1,empty,Filled
200,5ff0a827571a1af480c17fdc,Filled_empty,0,9254f32e77181c50ae514138bb57bbda3f192660754a01bb696b934ae71776c0,2939,True,keypress,testresponse_l_J,827.0,['Longer'],choice-response,Longer,6007b9b68ffa26e0d13be3ad,f300ms_delay_2_85,4907,219,f_maintaskTrials_2_l,maintaskTrials,9254f,1,0,True,8,2,5,empty,Filled
201,5ff0a827571a1af480c17fdc,Filled_empty,0,9254f32e77181c50ae514138bb57bbda3f192660754a01bb696b934ae71776c0,2939,True,keypress,testresponse_l_J,1758.0,['Longer'],choice-response,Longer,6007b9b68ffa26e0d13be3ad,f300ms_delay_2_84,5806,220,f_maintaskTrials_2_l,maintaskTrials,9254f,1,0,True,8,2,4,empty,Filled
202,5ff0a827571a1af480c17fdc,Filled_empty,0,9254f32e77181c50ae514138bb57bbda3f192660754a01bb696b934ae71776c0,2939,True,keypress,testresponse_l_J,820.0,['Longer'],choice-response,Longer,6007b9b68ffa26e0d13be3ad,f300ms_delay_2_86,5367,221,f_maintaskTrials_2_l,maintaskTrials,9254f,1,0,True,8,2,6,empty,Filled
203,5ff0a827571a1af480c17fdc,Filled_empty,0,9254f32e77181c50ae514138bb57bbda3f192660754a01bb696b934ae71776c0,2939,True,keypress,testresponse_l_J,1336.0,['Longer'],choice-response,Longer,6007b9b68ffa26e0d13be3ad,f300ms_delay_2_94,5477,222,f_maintaskTrials_2_l,maintaskTrials,9254f,1,0,True,9,2,4,empty,Filled
204,5ff0a827571a1af480c17fdc,Filled_empty,0,9254f32e77181c50ae514138bb57bbda3f192660754a01bb696b934ae71776c0,2939,True,keypress,testresponse_s_F,853.0,['Shorter'],choice-response,Shorter,6007b9b68ffa26e0d13be3ad,f300ms_delay_2_93,5229,223,f_maintaskTrials_2_s,maintaskTrials,9254f,1,1,True,9,2,3,empty,Filled
205,5ff0a827571a1af480c17fdc,Filled_empty,0,9254f32e77181c50ae514138bb57bbda3f192660754a01bb696b934ae71776c0,2939,True,keypress,testresponse_s_F,1939.0,['Shorter'],choice-response,Shorter,6007b9b68ffa26e0d13be3ad,f300ms_delay_2_82,5984,224,f_maintaskTrials_2_s,maintaskTrials,9254f,1,1,True,8,2,2,empty,Filled
206,5ff0a827571a1af480c17fdc,Filled_empty,0,9254f32e77181c50ae514138bb57bbda3f192660754a01bb696b934ae71776c0,2939,False,keypress,testresponse_s_F,744.0,['Shorter'],choice-response,Longer,6007b9b68ffa26e0d13be3ad,f300ms_delay_2_83,4810,225,f_maintaskTrials_2_s,maintaskTrials,9254f,0,0,True,8,2,3,empty,Filled
207,5ff0a827571a1af480c17fdc,Filled_empty,0,9254f32e77181c50ae514138bb57bbda3f192660754a01bb696b934ae71776c0,2939,True,keypress,testresponse_l_J,384.0,['Longer'],choice-response,Longer,6007b9b68ffa26e0d13be3ad,f300ms_delay_2_95,4558,226,f_maintaskTrials_2_l,maintaskTrials,9254f,1,0,True,9,2,5,empty,Filled
208,5ff0a827571a1af480c17fdc,Filled_empty,0,9254f32e77181c50ae514138bb57bbda3f192660754a01bb696b934ae71776c0,2939,True,keypress,testresponse_l_J,352.0,['Longer'],choice-response,Longer,6007b9b68ffa26e0d13be3ad,f300ms_delay_2_56,4330,227,f_maintaskTrials_2_l,maintaskTrials,9254f,1,0,True,5,2,6,empty,Filled
209,5ff0a827571a1af480c17fdc,Filled_empty,0,9254f32e77181c50ae514138bb57bbda3f192660754a01bb696b934ae71776c0,2939,True,keypress,testresponse_s_F,717.0,['Shorter'],choice-response,Shorter,6007b9b68ffa26e0d13be3ad,f300ms_delay_2_81,4898,228,f_maintaskTrials_2_s,maintaskTrials,9254f,1,1,True,8,2,1,empty,Filled
210,5ff0a827571a1af480c17fdc,Filled_empty,0,9254f32e77181c50ae514138bb57bbda3f192660754a01bb696b934ae71776c0,2939,False,keypress,testresponse_s_F,1503.0,['Shorter'],choice-response,Longer,6007b9b68ffa26e0d13be3ad,f300ms_delay_2_92,6046,229,f_maintaskTrials_2_s,maintaskTrials,9254f,0,0,True,9,2,2,empty,Filled
211,5ff0a827571a1af480c17fdc,Filled_empty,0,9254f32e77181c50ae514138bb57bbda3f192660754a01bb696b934ae71776c0,2939,True,keypress,testresponse_s_F,1381.0,['Shorter'],choice-response,Shorter,6007b9b68ffa26e0d13be3ad,f300ms_delay_2_53,5371,230,f_maintaskTrials_2_s,maintaskTrials,9254f,1,1,True,5,2,3,empty,Filled
212,5ff0a827571a1af480c17fdc,Filled_empty,0,9254f32e77181c50ae514138bb57bbda3f192660754a01bb696b934ae71776c0,2939,False,keypress,testresponse_l_J,646.0,['Longer'],choice-response,Shorter,6007b9b68ffa26e0d13be3ad,f300ms_delay_2_54,4623,231,f_maintaskTrials_2_l,maintaskTrials,9254f,0,1,True,5,2,4,empty,Filled
213,5ff0a827571a1af480c17fdc,Filled_empty,0,9254f32e77181c50ae514138bb57bbda3f192660754a01bb696b934ae71776c0,2939,True,keypress,testresponse_l_J,1010.0,['Longer'],choice-response,Longer,6007b9b68ffa26e0d13be3ad,f300ms_delay_2_96,5886,232,f_maintaskTrials_2_l,maintaskTrials,9254f,1,0,True,9,2,6,empty,Filled
214,5ff0a827571a1af480c17fdc,Filled_empty,0,9254f32e77181c50ae514138bb57bbda3f192660754a01bb696b934ae71776c0,2939,False,keypress,testresponse_s_F,1226.0,['Shorter'],choice-response,Longer,6007b9b68ffa26e0d13be3ad,f300ms_delay_2_91,5410,233,f_maintaskTrials_2_s,maintaskTrials,9254f,0,0,True,9,2,1,empty,Filled
215,5ff0a827571a1af480c17fdc,Filled_empty,0,9254f32e77181c50ae514138bb57bbda3f192660754a01bb696b934ae71776c0,2939,False,keypress,testresponse_l_J,3429.0,['Longer'],choice-response,Shorter,6007b9b68ffa26e0d13be3ad,f300ms_delay_2_55,7444,234,f_maintaskTrials_2_l,maintaskTrials,9254f,0,1,True,5,2,5,empty,Filled
216,5ff0a827571a1af480c17fdc,Filled_empty,0,d6d2e229f1b101f6474dad8cd9261efb9842bfa7577cfc7ed38ce1a21bca7299,4682,True,keypress,testresponse_l_J,826.0,['Longer'],choice-response,Longer,6007b9b68ffa26e0d13be3ad,f300ms_delay_2_85,6413,19,f_maintaskTrials_2_l,maintaskTrials,d6d2e,1,0,True,8,2,5,empty,Filled
217,5ff0a827571a1af480c17fdc,Filled_empty,0,d6d2e229f1b101f6474dad8cd9261efb9842bfa7577cfc7ed38ce1a21bca7299,4682,False,keypress,testresponse_s_F,542.0,['Shorter'],choice-response,Longer,6007b9b68ffa26e0d13be3ad,f300ms_delay_2_82,6444,20,f_maintaskTrials_2_s,maintaskTrials,d6d2e,0,0,True,8,2,2,empty,Filled
218,5ff0a827571a1af480c17fdc,Filled_empty,0,d6d2e229f1b101f6474dad8cd9261efb9842bfa7577cfc7ed38ce1a21bca7299,4682,False,keypress,testresponse_l_J,858.0,['Longer'],choice-response,Shorter,6007b9b68ffa26e0d13be3ad,f300ms_delay_2_54,6321,21,f_maintaskTrials_2_l,maintaskTrials,d6d2e,0,1,True,5,2,4,empty,Filled
219,5ff0a827571a1af480c17fdc,Filled_empty,0,d6d2e229f1b101f6474dad8cd9261efb9842bfa7577cfc7ed38ce1a21bca7299,4682,True,keypress,testresponse_s_F,556.0,['Shorter'],choice-response,Shorter,6007b9b68ffa26e0d13be3ad,f300ms_delay_2_81,6609,22,f_maintaskTrials_2_s,maintaskTrials,d6d2e,1,1,True,8,2,1,empty,Filled
220,5ff0a827571a1af480c17fdc,Filled_empty,0,d6d2e229f1b101f6474dad8cd9261efb9842bfa7577cfc7ed38ce1a21bca7299,4682,True,keypress,testresponse_l_J,941.0,['Longer'],choice-response,Longer,6007b9b68ffa26e0d13be3ad,f300ms_delay_2_96,6713,23,f_maintaskTrials_2_l,maintaskTrials,d6d2e,1,0,True,9,2,6,empty,Filled
221,5ff0a827571a1af480c17fdc,Filled_empty,0,d6d2e229f1b101f6474dad8cd9261efb9842bfa7577cfc7ed38ce1a21bca7299,4682,True,keypress,testresponse_s_F,554.0,['Shorter'],choice-response,Shorter,6007b9b68ffa26e0d13be3ad,f300ms_delay_2_93,6427,24,f_maintaskTrials_2_s,maintaskTrials,d6d2e,1,1,True,9,2,3,empty,Filled
222,5ff0a827571a1af480c17fdc,Filled_empty,0,d6d2e229f1b101f6474dad8cd9261efb9842bfa7577cfc7ed38ce1a21bca7299,4682,True,keypress,testresponse_s_F,556.0,['Shorter'],choice-response,Shorter,6007b9b68ffa26e0d13be3ad,f300ms_delay_2_52,7281,25,f_maintaskTrials_2_s,maintaskTrials,d6d2e,1,1,True,5,2,2,empty,Filled
223,5ff0a827571a1af480c17fdc,Filled_empty,0,d6d2e229f1b101f6474dad8cd9261efb9842bfa7577cfc7ed38ce1a21bca7299,4682,False,keypress,testresponse_l_J,1203.0,['Longer'],choice-response,Shorter,6007b9b68ffa26e0d13be3ad,f300ms_delay_2_55,6857,26,f_maintaskTrials_2_l,maintaskTrials,d6d2e,0,1,True,5,2,5,empty,Filled
224,5ff0a827571a1af480c17fdc,Filled_empty,0,d6d2e229f1b101f6474dad8cd9261efb9842bfa7577cfc7ed38ce1a21bca7299,4682,False,keypress,testresponse_l_J,677.0,['Longer'],choice-response,Shorter,6007b9b68ffa26e0d13be3ad,f300ms_delay_2_94,7379,27,f_maintaskTrials_2_l,maintaskTrials,d6d2e,0,1,True,9,2,4,empty,Filled
225,5ff0a827571a1af480c17fdc,Filled_empty,0,d6d2e229f1b101f6474dad8cd9261efb9842bfa7577cfc7ed38ce1a21bca7299,4682,False,keypress,testresponse_s_F,3215.0,['Shorter'],choice-response,Longer,6007b9b68ffa26e0d13be3ad,f300ms_delay_2_51,9214,28,f_maintaskTrials_2_s,maintaskTrials,d6d2e,0,0,True,5,2,1,empty,Filled
226,5ff0a827571a1af480c17fdc,Filled_empty,0,d6d2e229f1b101f6474dad8cd9261efb9842bfa7577cfc7ed38ce1a21bca7299,4682,True,keypress,testresponse_s_F,606.0,['Shorter'],choice-response,Shorter,6007b9b68ffa26e0d13be3ad,f300ms_delay_2_83,6150,29,f_maintaskTrials_2_s,maintaskTrials,d6d2e,1,1,True,8,2,3,empty,Filled
227,5ff0a827571a1af480c17fdc,Filled_empty,0,d6d2e229f1b101f6474dad8cd9261efb9842bfa7577cfc7ed38ce1a21bca7299,4682,False,keypress,testresponse_s_F,783.0,['Shorter'],choice-response,Longer,6007b9b68ffa26e0d13be3ad,f300ms_delay_2_53,7592,30,f_maintaskTrials_2_s,maintaskTrials,d6d2e,0,0,True,5,2,3,empty,Filled
228,5ff0a827571a1af480c17fdc,Filled_empty,0,d6d2e229f1b101f6474dad8cd9261efb9842bfa7577cfc7ed38ce1a21bca7299,4682,False,keypress,testresponse_s_F,1317.0,['Shorter'],choice-response,Longer,6007b9b68ffa26e0d13be3ad,f300ms_delay_2_92,6999,31,f_maintaskTrials_2_s,maintaskTrials,d6d2e,0,0,True,9,2,2,empty,Filled
229,5ff0a827571a1af480c17fdc,Filled_empty,0,d6d2e229f1b101f6474dad8cd9261efb9842bfa7577cfc7ed38ce1a21bca7299,4682,True,keypress,testresponse_s_F,3601.0,['Shorter'],choice-response,Shorter,6007b9b68ffa26e0d13be3ad,f300ms_delay_2_91,9283,32,f_maintaskTrials_2_s,maintaskTrials,d6d2e,1,1,True,9,2,1,empty,Filled
230,5ff0a827571a1af480c17fdc,Filled_empty,0,d6d2e229f1b101f6474dad8cd9261efb9842bfa7577cfc7ed38ce1a21bca7299,4682,True,keypress,testresponse_l_J,672.0,['Longer'],choice-response,Longer,6007b9b68ffa26e0d13be3ad,f300ms_delay_2_95,6461,33,f_maintaskTrials_2_l,maintaskTrials,d6d2e,1,0,True,9,2,5,empty,Filled
231,5ff0a827571a1af480c17fdc,Filled_empty,0,d6d2e229f1b101f6474dad8cd9261efb9842bfa7577cfc7ed38ce1a21bca7299,4682,True,keypress,testresponse_l_J,4545.0,['Longer'],choice-response,Longer,6007b9b68ffa26e0d13be3ad,f300ms_delay_2_86,11427,34,f_maintaskTrials_2_l,maintaskTrials,d6d2e,1,0,True,8,2,6,empty,Filled
232,5ff0a827571a1af480c17fdc,Filled_empty,0,d6d2e229f1b101f6474dad8cd9261efb9842bfa7577cfc7ed38ce1a21bca7299,4682,True,keypress,testresponse_l_J,642.0,['Longer'],choice-response,Longer,6007b9b68ffa26e0d13be3ad,f300ms_delay_2_56,5976,35,f_maintaskTrials_2_l,maintaskTrials,d6d2e,1,0,True,5,2,6,empty,Filled
233,5ff0a827571a1af480c17fdc,Filled_empty,0,d6d2e229f1b101f6474dad8cd9261efb9842bfa7577cfc7ed38ce1a21bca7299,4682,False,keypress,testresponse_l_J,360.0,['Longer'],choice-response,Shorter,6007b9b68ffa26e0d13be3ad,f300ms_delay_2_84,6600,36,f_maintaskTrials_2_l,maintaskTrials,d6d2e,0,1,True,8,2,4,empty,Filled
234,5ff0a827571a1af480c17fdc,Filled_empty,0,d6d2e229f1b101f6474dad8cd9261efb9842bfa7577cfc7ed38ce1a21bca7299,4682,False,keypress,testresponse_l_J,830.0,['Longer'],choice-response,Shorter,6007b9b68ffa26e0d13be3ad,f300ms_delay_2_56,7119,37,f_maintaskTrials_2_l,maintaskTrials,d6d2e,0,1,True,5,2,6,empty,Filled
235,5ff0a827571a1af480c17fdc,Filled_empty,0,d6d2e229f1b101f6474dad8cd9261efb9842bfa7577cfc7ed38ce1a21bca7299,4682,True,keypress,testresponse_s_F,721.0,['Shorter'],choice-response,Shorter,6007b9b68ffa26e0d13be3ad,f300ms_delay_2_83,6794,38,f_maintaskTrials_2_s,maintaskTrials,d6d2e,1,1,True,8,2,3,empty,Filled
236,5ff0a827571a1af480c17fdc,Filled_empty,0,d6d2e229f1b101f6474dad8cd9261efb9842bfa7577cfc7ed38ce1a21bca7299,4682,False,keypress,testresponse_s_F,3323.0,['Shorter'],choice-response,Longer,6007b9b68ffa26e0d13be3ad,f300ms_delay_2_93,9508,39,f_maintaskTrials_2_s,maintaskTrials,d6d2e,0,0,True,9,2,3,empty,Filled
237,5ff0a827571a1af480c17fdc,Filled_empty,0,d6d2e229f1b101f6474dad8cd9261efb9842bfa7577cfc7ed38ce1a21bca7299,4682,True,keypress,testresponse_l_J,445.0,['Longer'],choice-response,Longer,6007b9b68ffa26e0d13be3ad,f300ms_delay_2_55,5813,40,f_maintaskTrials_2_l,maintaskTrials,d6d2e,1,0,True,5,2,5,empty,Filled
238,5ff0a827571a1af480c17fdc,Filled_empty,0,d6d2e229f1b101f6474dad8cd9261efb9842bfa7577cfc7ed38ce1a21bca7299,4682,True,keypress,testresponse_s_F,720.0,['Shorter'],choice-response,Shorter,6007b9b68ffa26e0d13be3ad,f300ms_delay_2_82,6646,41,f_maintaskTrials_2_s,maintaskTrials,d6d2e,1,1,True,8,2,2,empty,Filled
239,5ff0a827571a1af480c17fdc,Filled_empty,0,d6d2e229f1b101f6474dad8cd9261efb9842bfa7577cfc7ed38ce1a21bca7299,4682,False,keypress,testresponse_l_J,549.0,['Longer'],choice-response,Shorter,6007b9b68ffa26e0d13be3ad,f300ms_delay_2_84,7433,42,f_maintaskTrials_2_l,maintaskTrials,d6d2e,0,1,True,8,2,4,empty,Filled
240,5ff0a827571a1af480c17fdc,Filled_empty,0,d6d2e229f1b101f6474dad8cd9261efb9842bfa7577cfc7ed38ce1a21bca7299,4682,False,keypress,testresponse_s_F,389.0,['Shorter'],choice-response,Longer,6007b9b68ffa26e0d13be3ad,f300ms_delay_2_92,5932,43,f_maintaskTrials_2_s,maintaskTrials,d6d2e,0,0,True,9,2,2,empty,Filled
241,5ff0a827571a1af480c17fdc,Filled_empty,0,d6d2e229f1b101f6474dad8cd9261efb9842bfa7577cfc7ed38ce1a21bca7299,4682,False,keypress,testresponse_s_F,1435.0,['Shorter'],choice-response,Longer,6007b9b68ffa26e0d13be3ad,f300ms_delay_2_51,8020,44,f_maintaskTrials_2_s,maintaskTrials,d6d2e,0,0,True,5,2,1,empty,Filled
242,5ff0a827571a1af480c17fdc,Filled_empty,0,d6d2e229f1b101f6474dad8cd9261efb9842bfa7577cfc7ed38ce1a21bca7299,4682,False,keypress,testresponse_s_F,531.0,['Shorter'],choice-response,Longer,6007b9b68ffa26e0d13be3ad,f300ms_delay_2_52,6423,45,f_maintaskTrials_2_s,maintaskTrials,d6d2e,0,0,True,5,2,2,empty,Filled
243,5ff0a827571a1af480c17fdc,Filled_empty,0,d6d2e229f1b101f6474dad8cd9261efb9842bfa7577cfc7ed38ce1a21bca7299,4682,True,keypress,testresponse_l_J,527.0,['Longer'],choice-response,Longer,6007b9b68ffa26e0d13be3ad,f300ms_delay_2_95,8544,46,f_maintaskTrials_2_l,maintaskTrials,d6d2e,1,0,True,9,2,5,empty,Filled
244,5ff0a827571a1af480c17fdc,Filled_empty,0,d6d2e229f1b101f6474dad8cd9261efb9842bfa7577cfc7ed38ce1a21bca7299,4682,True,keypress,testresponse_l_J,747.0,['Longer'],choice-response,Longer,6007b9b68ffa26e0d13be3ad,f300ms_delay_2_85,7283,47,f_maintaskTrials_2_l,maintaskTrials,d6d2e,1,0,True,8,2,5,empty,Filled
245,5ff0a827571a1af480c17fdc,Filled_empty,0,d6d2e229f1b101f6474dad8cd9261efb9842bfa7577cfc7ed38ce1a21bca7299,4682,True,keypress,testresponse_s_F,334.0,['Shorter'],choice-response,Shorter,6007b9b68ffa26e0d13be3ad,f300ms_delay_2_81,6123,48,f_maintaskTrials_2_s,maintaskTrials,d6d2e,1,1,True,8,2,1,empty,Filled
246,5ff0a827571a1af480c17fdc,Filled_empty,0,d6d2e229f1b101f6474dad8cd9261efb9842bfa7577cfc7ed38ce1a21bca7299,4682,False,keypress,testresponse_l_J,475.0,['Longer'],choice-response,Shorter,6007b9b68ffa26e0d13be3ad,f300ms_delay_2_96,6716,49,f_maintaskTrials_2_l,maintaskTrials,d6d2e,0,1,True,9,2,6,empty,Filled
247,5ff0a827571a1af480c17fdc,Filled_empty,0,d6d2e229f1b101f6474dad8cd9261efb9842bfa7577cfc7ed38ce1a21bca7299,4682,True,keypress,testresponse_s_F,483.0,['Shorter'],choice-response,Shorter,6007b9b68ffa26e0d13be3ad,f300ms_delay_2_91,6403,50,f_maintaskTrials_2_s,maintaskTrials,d6d2e,1,1,True,9,2,1,empty,Filled
248,5ff0a827571a1af480c17fdc,Filled_empty,0,d6d2e229f1b101f6474dad8cd9261efb9842bfa7577cfc7ed38ce1a21bca7299,4682,False,keypress,testresponse_l_J,522.0,['Longer'],choice-response,Shorter,6007b9b68ffa26e0d13be3ad,f300ms_delay_2_86,7118,51,f_maintaskTrials_2_l,maintaskTrials,d6d2e,0,1,True,8,2,6,empty,Filled
249,5ff0a827571a1af480c17fdc,Filled_empty,0,d6d2e229f1b101f6474dad8cd9261efb9842bfa7577cfc7ed38ce1a21bca7299,4682,False,keypress,testresponse_l_J,381.0,['Longer'],choice-response,Shorter,6007b9b68ffa26e0d13be3ad,f300ms_delay_2_54,7458,52,f_maintaskTrials_2_l,maintaskTrials,d6d2e,0,1,True,5,2,4,empty,Filled
250,5ff0a827571a1af480c17fdc,Filled_empty,0,d6d2e229f1b101f6474dad8cd9261efb9842bfa7577cfc7ed38ce1a21bca7299,4682,True,keypress,testresponse_s_F,607.0,['Shorter'],choice-response,Shorter,6007b9b68ffa26e0d13be3ad,f300ms_delay_2_53,6595,53,f_maintaskTrials_2_s,maintaskTrials,d6d2e,1,1,True,5,2,3,empty,Filled
251,5ff0a827571a1af480c17fdc,Filled_empty,0,d6d2e229f1b101f6474dad8cd9261efb9842bfa7577cfc7ed38ce1a21bca7299,4682,True,keypress,testresponse_l_J,426.0,['Longer'],choice-response,Longer,6007b9b68ffa26e0d13be3ad,f300ms_delay_2_94,6610,54,f_maintaskTrials_2_l,maintaskTrials,d6d2e,1,0,True,9,2,4,empty,Filled
252,5ff0a827571a1af480c17fdc,Filled_empty,0,d6d2e229f1b101f6474dad8cd9261efb9842bfa7577cfc7ed38ce1a21bca7299,4682,True,keypress,testresponse_l_J,413.0,['Longer'],choice-response,Longer,6007b9b68ffa26e0d13be3ad,f300ms_delay_2_96,6963,55,f_maintaskTrials_2_l,maintaskTrials,d6d2e,1,0,True,9,2,6,empty,Filled
253,5ff0a827571a1af480c17fdc,Filled_empty,0,d6d2e229f1b101f6474dad8cd9261efb9842bfa7577cfc7ed38ce1a21bca7299,4682,True,keypress,testresponse_l_J,570.0,['Longer'],choice-response,Longer,6007b9b68ffa26e0d13be3ad,f300ms_delay_2_84,6622,56,f_maintaskTrials_2_l,maintaskTrials,d6d2e,1,0,True,8,2,4,empty,Filled
254,5ff0a827571a1af480c17fdc,Filled_empty,0,d6d2e229f1b101f6474dad8cd9261efb9842bfa7577cfc7ed38ce1a21bca7299,4682,True,keypress,testresponse_l_J,301.0,['Longer'],choice-response,Longer,6007b9b68ffa26e0d13be3ad,f300ms_delay_2_56,6357,57,f_maintaskTrials_2_l,maintaskTrials,d6d2e,1,0,True,5,2,6,empty,Filled
255,5ff0a827571a1af480c17fdc,Filled_empty,0,d6d2e229f1b101f6474dad8cd9261efb9842bfa7577cfc7ed38ce1a21bca7299,4682,True,keypress,testresponse_s_F,335.0,['Shorter'],choice-response,Shorter,6007b9b68ffa26e0d13be3ad,f300ms_delay_2_91,6548,58,f_maintaskTrials_2_s,maintaskTrials,d6d2e,1,1,True,9,2,1,empty,Filled
256,5ff0a827571a1af480c17fdc,Filled_empty,0,d6d2e229f1b101f6474dad8cd9261efb9842bfa7577cfc7ed38ce1a21bca7299,4682,True,keypress,testresponse_s_F,396.0,['Shorter'],choice-response,Shorter,6007b9b68ffa26e0d13be3ad,f300ms_delay_2_93,6408,59,f_maintaskTrials_2_s,maintaskTrials,d6d2e,1,1,True,9,2,3,empty,Filled
257,5ff0a827571a1af480c17fdc,Filled_empty,0,d6d2e229f1b101f6474dad8cd9261efb9842bfa7577cfc7ed38ce1a21bca7299,4682,False,keypress,testresponse_l_J,615.0,['Longer'],choice-response,Shorter,6007b9b68ffa26e0d13be3ad,f300ms_delay_2_86,5755,60,f_maintaskTrials_2_l,maintaskTrials,d6d2e,0,1,True,8,2,6,empty,Filled
258,5ff0a827571a1af480c17fdc,Filled_empty,0,d6d2e229f1b101f6474dad8cd9261efb9842bfa7577cfc7ed38ce1a21bca7299,4682,False,keypress,testresponse_s_F,724.0,['Shorter'],choice-response,Longer,6007b9b68ffa26e0d13be3ad,f300ms_delay_2_53,5897,61,f_maintaskTrials_2_s,maintaskTrials,d6d2e,0,0,True,5,2,3,empty,Filled
259,5ff0a827571a1af480c17fdc,Filled_empty,0,d6d2e229f1b101f6474dad8cd9261efb9842bfa7577cfc7ed38ce1a21bca7299,4682,True,keypress,testresponse_s_F,1031.0,['Shorter'],choice-response,Shorter,6007b9b68ffa26e0d13be3ad,f300ms_delay_2_52,6771,62,f_maintaskTrials_2_s,maintaskTrials,d6d2e,1,1,True,5,2,2,empty,Filled
260,5ff0a827571a1af480c17fdc,Filled_empty,0,d6d2e229f1b101f6474dad8cd9261efb9842bfa7577cfc7ed38ce1a21bca7299,4682,True,keypress,testresponse_s_F,662.0,['Shorter'],choice-response,Shorter,6007b9b68ffa26e0d13be3ad,f300ms_delay_2_92,6444,63,f_maintaskTrials_2_s,maintaskTrials,d6d2e,1,1,True,9,2,2,empty,Filled
261,5ff0a827571a1af480c17fdc,Filled_empty,0,d6d2e229f1b101f6474dad8cd9261efb9842bfa7577cfc7ed38ce1a21bca7299,4682,False,keypress,testresponse_s_F,691.0,['Shorter'],choice-response,Longer,6007b9b68ffa26e0d13be3ad,f300ms_delay_2_51,6844,64,f_maintaskTrials_2_s,maintaskTrials,d6d2e,0,0,True,5,2,1,empty,Filled
262,5ff0a827571a1af480c17fdc,Filled_empty,0,d6d2e229f1b101f6474dad8cd9261efb9842bfa7577cfc7ed38ce1a21bca7299,4682,True,keypress,testresponse_s_F,884.0,['Shorter'],choice-response,Shorter,6007b9b68ffa26e0d13be3ad,f300ms_delay_2_81,7401,65,f_maintaskTrials_2_s,maintaskTrials,d6d2e,1,1,True,8,2,1,empty,Filled
263,5ff0a827571a1af480c17fdc,Filled_empty,0,d6d2e229f1b101f6474dad8cd9261efb9842bfa7577cfc7ed38ce1a21bca7299,4682,False,keypress,testresponse_l_J,286.0,['Longer'],choice-response,Shorter,6007b9b68ffa26e0d13be3ad,f300ms_delay_2_85,6705,66,f_maintaskTrials_2_l,maintaskTrials,d6d2e,0,1,True,8,2,5,empty,Filled
264,5ff0a827571a1af480c17fdc,Filled_empty,0,d6d2e229f1b101f6474dad8cd9261efb9842bfa7577cfc7ed38ce1a21bca7299,4682,False,keypress,testresponse_s_F,630.0,['Shorter'],choice-response,Longer,6007b9b68ffa26e0d13be3ad,f300ms_delay_2_83,6598,67,f_maintaskTrials_2_s,maintaskTrials,d6d2e,0,0,True,8,2,3,empty,Filled
265,5ff0a827571a1af480c17fdc,Filled_empty,0,d6d2e229f1b101f6474dad8cd9261efb9842bfa7577cfc7ed38ce1a21bca7299,4682,True,keypress,testresponse_l_J,1673.0,['Longer'],choice-response,Longer,6007b9b68ffa26e0d13be3ad,f300ms_delay_2_54,6600,68,f_maintaskTrials_2_l,maintaskTrials,d6d2e,1,0,True,5,2,4,empty,Filled
266,5ff0a827571a1af480c17fdc,Filled_empty,0,d6d2e229f1b101f6474dad8cd9261efb9842bfa7577cfc7ed38ce1a21bca7299,4682,False,keypress,testresponse_l_J,556.0,['Longer'],choice-response,Shorter,6007b9b68ffa26e0d13be3ad,f300ms_delay_2_95,6114,69,f_maintaskTrials_2_l,maintaskTrials,d6d2e,0,1,True,9,2,5,empty,Filled
267,5ff0a827571a1af480c17fdc,Filled_empty,0,d6d2e229f1b101f6474dad8cd9261efb9842bfa7577cfc7ed38ce1a21bca7299,4682,True,keypress,testresponse_l_J,668.0,['Longer'],choice-response,Longer,6007b9b68ffa26e0d13be3ad,f300ms_delay_2_94,7135,70,f_maintaskTrials_2_l,maintaskTrials,d6d2e,1,0,True,9,2,4,empty,Filled
268,5ff0a827571a1af480c17fdc,Filled_empty,0,d6d2e229f1b101f6474dad8cd9261efb9842bfa7577cfc7ed38ce1a21bca7299,4682,False,keypress,testresponse_s_F,623.0,['Shorter'],choice-response,Longer,6007b9b68ffa26e0d13be3ad,f300ms_delay_2_82,7117,71,f_maintaskTrials_2_s,maintaskTrials,d6d2e,0,0,True,8,2,2,empty,Filled
269,5ff0a827571a1af480c17fdc,Filled_empty,0,d6d2e229f1b101f6474dad8cd9261efb9842bfa7577cfc7ed38ce1a21bca7299,4682,False,keypress,testresponse_l_J,503.0,['Longer'],choice-response,Shorter,6007b9b68ffa26e0d13be3ad,f300ms_delay_2_55,6060,72,f_maintaskTrials_2_l,maintaskTrials,d6d2e,0,1,True,5,2,5,empty,Filled
270,5ff0a827571a1af480c17fdc,Filled_empty,0,d6d2e229f1b101f6474dad8cd9261efb9842bfa7577cfc7ed38ce1a21bca7299,4682,True,keypress,testresponse_s_F,694.0,['Shorter'],choice-response,Shorter,6007b9b68ffa26e0d13be3ad,f300ms_delay_2_92,7094,73,f_maintaskTrials_2_s,maintaskTrials,d6d2e,1,1,True,9,2,2,empty,Filled
271,5ff0a827571a1af480c17fdc,Filled_empty,0,d6d2e229f1b101f6474dad8cd9261efb9842bfa7577cfc7ed38ce1a21bca7299,4682,False,keypress,testresponse_s_F,519.0,['Shorter'],choice-response,Longer,6007b9b68ffa26e0d13be3ad,f300ms_delay_2_93,6824,74,f_maintaskTrials_2_s,maintaskTrials,d6d2e,0,0,True,9,2,3,empty,Filled
272,5ff0a827571a1af480c17fdc,Filled_empty,0,d6d2e229f1b101f6474dad8cd9261efb9842bfa7577cfc7ed38ce1a21bca7299,4682,False,keypress,testresponse_l_J,1111.0,['Longer'],choice-response,Shorter,6007b9b68ffa26e0d13be3ad,f300ms_delay_2_94,6685,75,f_maintaskTrials_2_l,maintaskTrials,d6d2e,0,1,True,9,2,4,empty,Filled
273,5ff0a827571a1af480c17fdc,Filled_empty,0,d6d2e229f1b101f6474dad8cd9261efb9842bfa7577cfc7ed38ce1a21bca7299,4682,True,keypress,testresponse_s_F,442.0,['Shorter'],choice-response,Shorter,6007b9b68ffa26e0d13be3ad,f300ms_delay_2_52,5888,76,f_maintaskTrials_2_s,maintaskTrials,d6d2e,1,1,True,5,2,2,empty,Filled
274,5ff0a827571a1af480c17fdc,Filled_empty,0,d6d2e229f1b101f6474dad8cd9261efb9842bfa7577cfc7ed38ce1a21bca7299,4682,True,keypress,testresponse_l_J,388.0,['Longer'],choice-response,Longer,6007b9b68ffa26e0d13be3ad,f300ms_delay_2_85,6336,77,f_maintaskTrials_2_l,maintaskTrials,d6d2e,1,0,True,8,2,5,empty,Filled
275,5ff0a827571a1af480c17fdc,Filled_empty,0,d6d2e229f1b101f6474dad8cd9261efb9842bfa7577cfc7ed38ce1a21bca7299,4682,False,keypress,testresponse_l_J,582.0,['Longer'],choice-response,Shorter,6007b9b68ffa26e0d13be3ad,f300ms_delay_2_54,6428,78,f_maintaskTrials_2_l,maintaskTrials,d6d2e,0,1,True,5,2,4,empty,Filled
276,5ff0a827571a1af480c17fdc,Filled_empty,0,d6d2e229f1b101f6474dad8cd9261efb9842bfa7577cfc7ed38ce1a21bca7299,4682,True,keypress,testresponse_s_F,611.0,['Shorter'],choice-response,Shorter,6007b9b68ffa26e0d13be3ad,f300ms_delay_2_81,7330,79,f_maintaskTrials_2_s,maintaskTrials,d6d2e,1,1,True,8,2,1,empty,Filled
277,5ff0a827571a1af480c17fdc,Filled_empty,0,d6d2e229f1b101f6474dad8cd9261efb9842bfa7577cfc7ed38ce1a21bca7299,4682,True,keypress,testresponse_s_F,372.0,['Shorter'],choice-response,Shorter,6007b9b68ffa26e0d13be3ad,f300ms_delay_2_83,7016,80,f_maintaskTrials_2_s,maintaskTrials,d6d2e,1,1,True,8,2,3,empty,Filled
278,5ff0a827571a1af480c17fdc,Filled_empty,0,d6d2e229f1b101f6474dad8cd9261efb9842bfa7577cfc7ed38ce1a21bca7299,4682,True,keypress,testresponse_l_J,445.0,['Longer'],choice-response,Longer,6007b9b68ffa26e0d13be3ad,f300ms_delay_2_84,6676,81,f_maintaskTrials_2_l,maintaskTrials,d6d2e,1,0,True,8,2,4,empty,Filled
279,5ff0a827571a1af480c17fdc,Filled_empty,0,d6d2e229f1b101f6474dad8cd9261efb9842bfa7577cfc7ed38ce1a21bca7299,4682,True,keypress,testresponse_s_F,412.0,['Shorter'],choice-response,Shorter,6007b9b68ffa26e0d13be3ad,f300ms_delay_2_91,6173,82,f_maintaskTrials_2_s,maintaskTrials,d6d2e,1,1,True,9,2,1,empty,Filled
280,5ff0a827571a1af480c17fdc,Filled_empty,0,d6d2e229f1b101f6474dad8cd9261efb9842bfa7577cfc7ed38ce1a21bca7299,4682,True,keypress,testresponse_s_F,358.0,['Shorter'],choice-response,Shorter,6007b9b68ffa26e0d13be3ad,f300ms_delay_2_82,5888,83,f_maintaskTrials_2_s,maintaskTrials,d6d2e,1,1,True,8,2,2,empty,Filled
281,5ff0a827571a1af480c17fdc,Filled_empty,0,d6d2e229f1b101f6474dad8cd9261efb9842bfa7577cfc7ed38ce1a21bca7299,4682,True,keypress,testresponse_l_J,536.0,['Longer'],choice-response,Longer,6007b9b68ffa26e0d13be3ad,f300ms_delay_2_95,6551,84,f_maintaskTrials_2_l,maintaskTrials,d6d2e,1,0,True,9,2,5,empty,Filled
282,5ff0a827571a1af480c17fdc,Filled_empty,0,d6d2e229f1b101f6474dad8cd9261efb9842bfa7577cfc7ed38ce1a21bca7299,4682,True,keypress,testresponse_s_F,830.0,['Shorter'],choice-response,Shorter,6007b9b68ffa26e0d13be3ad,f300ms_delay_2_51,24089,85,f_maintaskTrials_2_s,maintaskTrials,d6d2e,1,1,True,5,2,1,empty,Filled
283,5ff0a827571a1af480c17fdc,Filled_empty,0,d6d2e229f1b101f6474dad8cd9261efb9842bfa7577cfc7ed38ce1a21bca7299,4682,True,keypress,testresponse_l_J,440.0,['Longer'],choice-response,Longer,6007b9b68ffa26e0d13be3ad,f300ms_delay_2_96,7991,86,f_maintaskTrials_2_l,maintaskTrials,d6d2e,1,0,True,9,2,6,empty,Filled
284,5ff0a827571a1af480c17fdc,Filled_empty,0,d6d2e229f1b101f6474dad8cd9261efb9842bfa7577cfc7ed38ce1a21bca7299,4682,True,keypress,testresponse_l_J,589.0,['Longer'],choice-response,Longer,6007b9b68ffa26e0d13be3ad,f300ms_delay_2_86,21090,87,f_maintaskTrials_2_l,maintaskTrials,d6d2e,1,0,True,8,2,6,empty,Filled
285,5ff0a827571a1af480c17fdc,Filled_empty,0,d6d2e229f1b101f6474dad8cd9261efb9842bfa7577cfc7ed38ce1a21bca7299,4682,True,keypress,testresponse_l_J,637.0,['Longer'],choice-response,Longer,6007b9b68ffa26e0d13be3ad,f300ms_delay_2_56,7475,88,f_maintaskTrials_2_l,maintaskTrials,d6d2e,1,0,True,5,2,6,empty,Filled
286,5ff0a827571a1af480c17fdc,Filled_empty,0,d6d2e229f1b101f6474dad8cd9261efb9842bfa7577cfc7ed38ce1a21bca7299,4682,True,keypress,testresponse_s_F,799.0,['Shorter'],choice-response,Shorter,6007b9b68ffa26e0d13be3ad,f300ms_delay_2_53,7202,89,f_maintaskTrials_2_s,maintaskTrials,d6d2e,1,1,True,5,2,3,empty,Filled
287,5ff0a827571a1af480c17fdc,Filled_empty,0,d6d2e229f1b101f6474dad8cd9261efb9842bfa7577cfc7ed38ce1a21bca7299,4682,True,keypress,testresponse_l_J,395.0,['Longer'],choice-response,Longer,6007b9b68ffa26e0d13be3ad,f300ms_delay_2_55,7827,90,f_maintaskTrials_2_l,maintaskTrials,d6d2e,1,0,True,5,2,5,empty,Filled
288,5ff0a827571a1af480c17fdc,Filled_empty,0,d6d2e229f1b101f6474dad8cd9261efb9842bfa7577cfc7ed38ce1a21bca7299,4682,False,keypress,testresponse_s_F,718.0,['Shorter'],choice-response,Longer,6007b9b68ffa26e0d13be3ad,f300ms_delay_2_53,6966,91,f_maintaskTrials_2_s,maintaskTrials,d6d2e,0,0,True,5,2,3,empty,Filled
289,5ff0a827571a1af480c17fdc,Filled_empty,0,d6d2e229f1b101f6474dad8cd9261efb9842bfa7577cfc7ed38ce1a21bca7299,4682,False,keypress,testresponse_l_J,1406.0,['Longer'],choice-response,Shorter,6007b9b68ffa26e0d13be3ad,f300ms_delay_2_86,7757,92,f_maintaskTrials_2_l,maintaskTrials,d6d2e,0,1,True,8,2,6,empty,Filled
290,5ff0a827571a1af480c17fdc,Filled_empty,0,d6d2e229f1b101f6474dad8cd9261efb9842bfa7577cfc7ed38ce1a21bca7299,4682,True,keypress,testresponse_s_F,454.0,['Shorter'],choice-response,Shorter,6007b9b68ffa26e0d13be3ad,f300ms_delay_2_92,6441,93,f_maintaskTrials_2_s,maintaskTrials,d6d2e,1,1,True,9,2,2,empty,Filled
291,5ff0a827571a1af480c17fdc,Filled_empty,0,d6d2e229f1b101f6474dad8cd9261efb9842bfa7577cfc7ed38ce1a21bca7299,4682,False,keypress,testresponse_s_F,704.0,['Shorter'],choice-response,Longer,6007b9b68ffa26e0d13be3ad,f300ms_delay_2_82,6897,94,f_maintaskTrials_2_s,maintaskTrials,d6d2e,0,0,True,8,2,2,empty,Filled
292,5ff0a827571a1af480c17fdc,Filled_empty,0,d6d2e229f1b101f6474dad8cd9261efb9842bfa7577cfc7ed38ce1a21bca7299,4682,False,keypress,testresponse_s_F,299.0,['Shorter'],choice-response,Longer,6007b9b68ffa26e0d13be3ad,f300ms_delay_2_51,7359,95,f_maintaskTrials_2_s,maintaskTrials,d6d2e,0,0,True,5,2,1,empty,Filled
293,5ff0a827571a1af480c17fdc,Filled_empty,0,d6d2e229f1b101f6474dad8cd9261efb9842bfa7577cfc7ed38ce1a21bca7299,4682,False,keypress,testresponse_l_J,1579.0,['Longer'],choice-response,Shorter,6007b9b68ffa26e0d13be3ad,f300ms_delay_2_55,16004,96,f_maintaskTrials_2_l,maintaskTrials,d6d2e,0,1,True,5,2,5,empty,Filled
294,5ff0a827571a1af480c17fdc,Filled_empty,0,d6d2e229f1b101f6474dad8cd9261efb9842bfa7577cfc7ed38ce1a21bca7299,4682,True,keypress,testresponse_s_F,743.0,['Shorter'],choice-response,Shorter,6007b9b68ffa26e0d13be3ad,f300ms_delay_2_91,7749,97,f_maintaskTrials_2_s,maintaskTrials,d6d2e,1,1,True,9,2,1,empty,Filled
295,5ff0a827571a1af480c17fdc,Filled_empty,0,d6d2e229f1b101f6474dad8cd9261efb9842bfa7577cfc7ed38ce1a21bca7299,4682,False,keypress,testresponse_l_J,606.0,['Longer'],choice-response,Shorter,6007b9b68ffa26e0d13be3ad,f300ms_delay_2_56,6814,98,f_maintaskTrials_2_l,maintaskTrials,d6d2e,0,1,True,5,2,6,empty,Filled
296,5ff0a827571a1af480c17fdc,Filled_empty,0,d6d2e229f1b101f6474dad8cd9261efb9842bfa7577cfc7ed38ce1a21bca7299,4682,True,keypress,testresponse_l_J,588.0,['Longer'],choice-response,Longer,6007b9b68ffa26e0d13be3ad,f300ms_delay_2_95,6542,99,f_maintaskTrials_2_l,maintaskTrials,d6d2e,1,0,True,9,2,5,empty,Filled
297,5ff0a827571a1af480c17fdc,Filled_empty,0,d6d2e229f1b101f6474dad8cd9261efb9842bfa7577cfc7ed38ce1a21bca7299,4682,True,keypress,testresponse_s_F,562.0,['Shorter'],choice-response,Shorter,6007b9b68ffa26e0d13be3ad,f300ms_delay_2_52,6247,100,f_maintaskTrials_2_s,maintaskTrials,d6d2e,1,1,True,5,2,2,empty,Filled
298,5ff0a827571a1af480c17fdc,Filled_empty,0,d6d2e229f1b101f6474dad8cd9261efb9842bfa7577cfc7ed38ce1a21bca7299,4682,True,keypress,testresponse_l_J,663.0,['Longer'],choice-response,Longer,6007b9b68ffa26e0d13be3ad,f300ms_delay_2_94,6026,101,f_maintaskTrials_2_l,maintaskTrials,d6d2e,1,0,True,9,2,4,empty,Filled
299,5ff0a827571a1af480c17fdc,Filled_empty,0,d6d2e229f1b101f6474dad8cd9261efb9842bfa7577cfc7ed38ce1a21bca7299,4682,False,keypress,testresponse_s_F,698.0,['Shorter'],choice-response,Longer,6007b9b68ffa26e0d13be3ad,f300ms_delay_2_81,7685,102,f_maintaskTrials_2_s,maintaskTrials,d6d2e,0,0,True,8,2,1,empty,Filled
300,5ff0a827571a1af480c17fdc,Filled_empty,0,d6d2e229f1b101f6474dad8cd9261efb9842bfa7577cfc7ed38ce1a21bca7299,4682,False,keypress,testresponse_l_J,362.0,['Longer'],choice-response,Shorter,6007b9b68ffa26e0d13be3ad,f300ms_delay_2_54,6408,103,f_maintaskTrials_2_l,maintaskTrials,d6d2e,0,1,True,5,2,4,empty,Filled
301,5ff0a827571a1af480c17fdc,Filled_empty,0,d6d2e229f1b101f6474dad8cd9261efb9842bfa7577cfc7ed38ce1a21bca7299,4682,True,keypress,testresponse_s_F,490.0,['Shorter'],choice-response,Shorter,6007b9b68ffa26e0d13be3ad,f300ms_delay_2_83,7004,104,f_maintaskTrials_2_s,maintaskTrials,d6d2e,1,1,True,8,2,3,empty,Filled
302,5ff0a827571a1af480c17fdc,Filled_empty,0,d6d2e229f1b101f6474dad8cd9261efb9842bfa7577cfc7ed38ce1a21bca7299,4682,False,keypress,testresponse_l_J,320.0,['Longer'],choice-response,Shorter,6007b9b68ffa26e0d13be3ad,f300ms_delay_2_96,6268,105,f_maintaskTrials_2_l,maintaskTrials,d6d2e,0,1,True,9,2,6,empty,Filled
303,5ff0a827571a1af480c17fdc,Filled_empty,0,d6d2e229f1b101f6474dad8cd9261efb9842bfa7577cfc7ed38ce1a21bca7299,4682,True,keypress,testresponse_l_J,256.0,['Longer'],choice-response,Longer,6007b9b68ffa26e0d13be3ad,f300ms_delay_2_84,6120,106,f_maintaskTrials_2_l,maintaskTrials,d6d2e,1,0,True,8,2,4,empty,Filled
304,5ff0a827571a1af480c17fdc,Filled_empty,0,d6d2e229f1b101f6474dad8cd9261efb9842bfa7577cfc7ed38ce1a21bca7299,4682,True,keypress,testresponse_s_F,1112.0,['Shorter'],choice-response,Shorter,6007b9b68ffa26e0d13be3ad,f300ms_delay_2_93,7531,107,f_maintaskTrials_2_s,maintaskTrials,d6d2e,1,1,True,9,2,3,empty,Filled
305,5ff0a827571a1af480c17fdc,Filled_empty,0,d6d2e229f1b101f6474dad8cd9261efb9842bfa7577cfc7ed38ce1a21bca7299,4682,False,keypress,testresponse_l_J,1176.0,['Longer'],choice-response,Shorter,6007b9b68ffa26e0d13be3ad,f300ms_delay_2_85,7945,108,f_maintaskTrials_2_l,maintaskTrials,d6d2e,0,1,True,8,2,5,empty,Filled
306,5ff0a827571a1af480c17fdc,Filled_empty,0,d6d2e229f1b101f6474dad8cd9261efb9842bfa7577cfc7ed38ce1a21bca7299,4682,True,keypress,testresponse_s_F,612.0,['Shorter'],choice-response,Shorter,6007b9b68ffa26e0d13be3ad,f300ms_delay_2_91,6873,109,f_maintaskTrials_2_s,maintaskTrials,d6d2e,1,1,True,9,2,1,empty,Filled
307,5ff0a827571a1af480c17fdc,Filled_empty,0,d6d2e229f1b101f6474dad8cd9261efb9842bfa7577cfc7ed38ce1a21bca7299,4682,False,keypress,testresponse_s_F,639.0,['Shorter'],choice-response,Longer,6007b9b68ffa26e0d13be3ad,f300ms_delay_2_93,7515,110,f_maintaskTrials_2_s,maintaskTrials,d6d2e,0,0,True,9,2,3,empty,Filled
308,5ff0a827571a1af480c17fdc,Filled_empty,0,d6d2e229f1b101f6474dad8cd9261efb9842bfa7577cfc7ed38ce1a21bca7299,4682,True,keypress,testresponse_s_F,752.0,['Shorter'],choice-response,Shorter,6007b9b68ffa26e0d13be3ad,f300ms_delay_2_92,6624,111,f_maintaskTrials_2_s,maintaskTrials,d6d2e,1,1,True,9,2,2,empty,Filled
309,5ff0a827571a1af480c17fdc,Filled_empty,0,d6d2e229f1b101f6474dad8cd9261efb9842bfa7577cfc7ed38ce1a21bca7299,4682,True,keypress,testresponse_l_J,1091.0,['Longer'],choice-response,Longer,6007b9b68ffa26e0d13be3ad,f300ms_delay_2_85,8892,112,f_maintaskTrials_2_l,maintaskTrials,d6d2e,1,0,True,8,2,5,empty,Filled
310,5ff0a827571a1af480c17fdc,Filled_empty,0,d6d2e229f1b101f6474dad8cd9261efb9842bfa7577cfc7ed38ce1a21bca7299,4682,False,keypress,testresponse_s_F,3170.0,['Shorter'],choice-response,Longer,6007b9b68ffa26e0d13be3ad,f300ms_delay_2_83,10423,113,f_maintaskTrials_2_s,maintaskTrials,d6d2e,0,0,True,8,2,3,empty,Filled
311,5ff0a827571a1af480c17fdc,Filled_empty,0,d6d2e229f1b101f6474dad8cd9261efb9842bfa7577cfc7ed38ce1a21bca7299,4682,True,keypress,testresponse_l_J,788.0,['Longer'],choice-response,Longer,6007b9b68ffa26e0d13be3ad,f300ms_delay_2_86,6703,114,f_maintaskTrials_2_l,maintaskTrials,d6d2e,1,0,True,8,2,6,empty,Filled
312,5ff0a827571a1af480c17fdc,Filled_empty,0,d6d2e229f1b101f6474dad8cd9261efb9842bfa7577cfc7ed38ce1a21bca7299,4682,False,keypress,testresponse_l_J,10779.0,['Longer'],choice-response,Shorter,6007b9b68ffa26e0d13be3ad,f300ms_delay_2_96,17404,115,f_maintaskTrials_2_l,maintaskTrials,d6d2e,0,1,True,9,2,6,empty,Filled
313,5ff0a827571a1af480c17fdc,Filled_empty,0,d6d2e229f1b101f6474dad8cd9261efb9842bfa7577cfc7ed38ce1a21bca7299,4682,True,keypress,testresponse_l_J,673.0,['Longer'],choice-response,Longer,6007b9b68ffa26e0d13be3ad,f300ms_delay_2_95,12174,116,f_maintaskTrials_2_l,maintaskTrials,d6d2e,1,0,True,9,2,5,empty,Filled
314,5ff0a827571a1af480c17fdc,Filled_empty,0,d6d2e229f1b101f6474dad8cd9261efb9842bfa7577cfc7ed38ce1a21bca7299,4682,True,keypress,testresponse_s_F,628.0,['Shorter'],choice-response,Shorter,6007b9b68ffa26e0d13be3ad,f300ms_delay_2_53,7297,117,f_maintaskTrials_2_s,maintaskTrials,d6d2e,1,1,True,5,2,3,empty,Filled
315,5ff0a827571a1af480c17fdc,Filled_empty,0,d6d2e229f1b101f6474dad8cd9261efb9842bfa7577cfc7ed38ce1a21bca7299,4682,True,keypress,testresponse_s_F,385.0,['Shorter'],choice-response,Shorter,6007b9b68ffa26e0d13be3ad,f300ms_delay_2_81,7360,118,f_maintaskTrials_2_s,maintaskTrials,d6d2e,1,1,True,8,2,1,empty,Filled
316,5ff0a827571a1af480c17fdc,Filled_empty,0,d6d2e229f1b101f6474dad8cd9261efb9842bfa7577cfc7ed38ce1a21bca7299,4682,False,keypress,testresponse_l_J,531.0,['Longer'],choice-response,Shorter,6007b9b68ffa26e0d13be3ad,f300ms_delay_2_54,6819,119,f_maintaskTrials_2_l,maintaskTrials,d6d2e,0,1,True,5,2,4,empty,Filled
317,5ff0a827571a1af480c17fdc,Filled_empty,0,d6d2e229f1b101f6474dad8cd9261efb9842bfa7577cfc7ed38ce1a21bca7299,4682,False,keypress,testresponse_s_F,735.0,['Shorter'],choice-response,Longer,6007b9b68ffa26e0d13be3ad,f300ms_delay_2_51,7411,120,f_maintaskTrials_2_s,maintaskTrials,d6d2e,0,0,True,5,2,1,empty,Filled
318,5ff0a827571a1af480c17fdc,Filled_empty,0,d6d2e229f1b101f6474dad8cd9261efb9842bfa7577cfc7ed38ce1a21bca7299,4682,False,keypress,testresponse_s_F,861.0,['Shorter'],choice-response,Longer,6007b9b68ffa26e0d13be3ad,f300ms_delay_2_82,7589,121,f_maintaskTrials_2_s,maintaskTrials,d6d2e,0,0,True,8,2,2,empty,Filled
319,5ff0a827571a1af480c17fdc,Filled_empty,0,d6d2e229f1b101f6474dad8cd9261efb9842bfa7577cfc7ed38ce1a21bca7299,4682,False,keypress,testresponse_l_J,431.0,['Longer'],choice-response,Shorter,6007b9b68ffa26e0d13be3ad,f300ms_delay_2_56,6313,122,f_maintaskTrials_2_l,maintaskTrials,d6d2e,0,1,True,5,2,6,empty,Filled
320,5ff0a827571a1af480c17fdc,Filled_empty,0,d6d2e229f1b101f6474dad8cd9261efb9842bfa7577cfc7ed38ce1a21bca7299,4682,False,keypress,testresponse_l_J,427.0,['Longer'],choice-response,Shorter,6007b9b68ffa26e0d13be3ad,f300ms_delay_2_94,6285,123,f_maintaskTrials_2_l,maintaskTrials,d6d2e,0,1,True,9,2,4,empty,Filled
321,5ff0a827571a1af480c17fdc,Filled_empty,0,d6d2e229f1b101f6474dad8cd9261efb9842bfa7577cfc7ed38ce1a21bca7299,4682,False,keypress,testresponse_l_J,1657.0,['Longer'],choice-response,Shorter,6007b9b68ffa26e0d13be3ad,f300ms_delay_2_84,7791,124,f_maintaskTrials_2_l,maintaskTrials,d6d2e,0,1,True,8,2,4,empty,Filled
322,5ff0a827571a1af480c17fdc,Filled_empty,0,d6d2e229f1b101f6474dad8cd9261efb9842bfa7577cfc7ed38ce1a21bca7299,4682,False,keypress,testresponse_l_J,18109.0,['Longer'],choice-response,Shorter,6007b9b68ffa26e0d13be3ad,f300ms_delay_2_55,24610,125,f_maintaskTrials_2_l,maintaskTrials,d6d2e,0,1,True,5,2,5,empty,Filled
