,expt_id,group_id,network_error_repeat,participant_id,participation_duration,response_correct,response_mode,response_name,response_rt,response_target,response_type,response_value,session_id,stimuli_presented,trial_duration,trial_num,trial_template,task,sub_id,Correct,Shorter,main_task_easiest_pass,onset,delay,comparison,order,key
0,5ff0a827571a1af480c17fdc,Filled_empty,0,9254f32e77181c50ae514138bb57bbda3f192660754a01bb696b934ae71776c0,2939,True,keypress,testresponse_s_F,735.0,['Shorter'],choice-response,Shorter,6007b9b68ffa26e0d13be3ad,e300ms_delay_2_93,5795,251,e_maintaskTrials_2_s,maintaskTrials,9254f,1,1,True,9,2,3,empty,Filled
1,5ff0a827571a1af480c17fdc,Filled_empty,0,9254f32e77181c50ae514138bb57bbda3f192660754a01bb696b934ae71776c0,2939,False,keypress,testresponse_s_F,1127.0,['Shorter'],choice-response,Longer,6007b9b68ffa26e0d13be3ad,e300ms_delay_2_82,5437,252,e_maintaskTrials_2_s,maintaskTrials,9254f,0,0,True,8,2,2,empty,Filled
2,5ff0a827571a1af480c17fdc,Filled_empty,0,9254f32e77181c50ae514138bb57bbda3f192660754a01bb696b934ae71776c0,2939,False,keypress,testresponse_l_J,208.0,['Longer'],choice-response,Shorter,6007b9b68ffa26e0d13be3ad,e300ms_delay_2_54,4724,253,e_maintaskTrials_2_l,maintaskTrials,9254f,0,1,True,5,2,4,empty,Filled
3,5ff0a827571a1af480c17fdc,Filled_empty,0,9254f32e77181c50ae514138bb57bbda3f192660754a01bb696b934ae71776c0,2939,True,keypress,testresponse_l_J,890.0,['Longer'],choice-response,Longer,6007b9b68ffa26e0d13be3ad,e300ms_delay_2_94,5389,254,e_maintaskTrials_2_l,maintaskTrials,9254f,1,0,True,9,2,4,empty,Filled
4,5ff0a827571a1af480c17fdc,Filled_empty,0,9254f32e77181c50ae514138bb57bbda3f192660754a01bb696b934ae71776c0,2939,True,keypress,testresponse_s_F,393.0,['Shorter'],choice-response,Shorter,6007b9b68ffa26e0d13be3ad,e300ms_delay_2_81,4720,255,e_maintaskTrials_2_s,maintaskTrials,9254f,1,1,True,8,2,1,empty,Filled
5,5ff0a827571a1af480c17fdc,Filled_empty,0,9254f32e77181c50ae514138bb57bbda3f192660754a01bb696b934ae71776c0,2939,False,keypress,testresponse_s_F,766.0,['Shorter'],choice-response,Longer,6007b9b68ffa26e0d13be3ad,e300ms_delay_2_92,5396,256,e_maintaskTrials_2_s,maintaskTrials,9254f,0,0,True,9,2,2,empty,Filled
6,5ff0a827571a1af480c17fdc,Filled_empty,0,9254f32e77181c50ae514138bb57bbda3f192660754a01bb696b934ae71776c0,2939,True,keypress,testresponse_l_J,497.0,['Longer'],choice-response,Longer,6007b9b68ffa26e0d13be3ad,e300ms_delay_2_85,4884,257,e_maintaskTrials_2_l,maintaskTrials,9254f,1,0,True,8,2,5,empty,Filled
7,5ff0a827571a1af480c17fdc,Filled_empty,0,9254f32e77181c50ae514138bb57bbda3f192660754a01bb696b934ae71776c0,2939,True,keypress,testresponse_l_J,375.0,['Longer'],choice-response,Longer,6007b9b68ffa26e0d13be3ad,e300ms_delay_2_86,4858,258,e_maintaskTrials_2_l,maintaskTrials,9254f,1,0,True,8,2,6,empty,Filled
8,5ff0a827571a1af480c17fdc,Filled_empty,0,9254f32e77181c50ae514138bb57bbda3f192660754a01bb696b934ae71776c0,2939,True,keypress,testresponse_s_F,227.0,['Shorter'],choice-response,Shorter,6007b9b68ffa26e0d13be3ad,e300ms_delay_2_53,4535,259,e_maintaskTrials_2_s,maintaskTrials,9254f,1,1,True,5,2,3,empty,Filled
9,5ff0a827571a1af480c17fdc,Filled_empty,0,9254f32e77181c50ae514138bb57bbda3f192660754a01bb696b934ae71776c0,2939,True,keypress,testresponse_s_F,1057.0,['Shorter'],choice-response,Shorter,6007b9b68ffa26e0d13be3ad,e300ms_delay_2_91,6112,260,e_maintaskTrials_2_s,maintaskTrials,9254f,1,1,True,9,2,1,empty,Filled
10,5ff0a827571a1af480c17fdc,Filled_empty,0,9254f32e77181c50ae514138bb57bbda3f192660754a01bb696b934ae71776c0,2939,False,keypress,testresponse_l_J,139.0,['Longer'],choice-response,Shorter,6007b9b68ffa26e0d13be3ad,e300ms_delay_2_55,4532,261,e_maintaskTrials_2_l,maintaskTrials,9254f,0,1,True,5,2,5,empty,Filled
11,5ff0a827571a1af480c17fdc,Filled_empty,0,9254f32e77181c50ae514138bb57bbda3f192660754a01bb696b934ae71776c0,2939,True,keypress,testresponse_s_F,249.0,['Shorter'],choice-response,Shorter,6007b9b68ffa26e0d13be3ad,e300ms_delay_2_51,4880,262,e_maintaskTrials_2_s,maintaskTrials,9254f,1,1,True,5,2,1,empty,Filled
12,5ff0a827571a1af480c17fdc,Filled_empty,0,9254f32e77181c50ae514138bb57bbda3f192660754a01bb696b934ae71776c0,2939,True,keypress,testresponse_s_F,220.0,['Shorter'],choice-response,Shorter,6007b9b68ffa26e0d13be3ad,e300ms_delay_2_52,4462,263,e_maintaskTrials_2_s,maintaskTrials,9254f,1,1,True,5,2,2,empty,Filled
13,5ff0a827571a1af480c17fdc,Filled_empty,0,9254f32e77181c50ae514138bb57bbda3f192660754a01bb696b934ae71776c0,2939,True,keypress,testresponse_l_J,282.0,['Longer'],choice-response,Longer,6007b9b68ffa26e0d13be3ad,e300ms_delay_2_56,4599,264,e_maintaskTrials_2_l,maintaskTrials,9254f,1,0,True,5,2,6,empty,Filled
14,5ff0a827571a1af480c17fdc,Filled_empty,0,9254f32e77181c50ae514138bb57bbda3f192660754a01bb696b934ae71776c0,2939,True,keypress,testresponse_l_J,297.0,['Longer'],choice-response,Longer,6007b9b68ffa26e0d13be3ad,e300ms_delay_2_84,4697,265,e_maintaskTrials_2_l,maintaskTrials,9254f,1,0,True,8,2,4,empty,Filled
15,5ff0a827571a1af480c17fdc,Filled_empty,0,9254f32e77181c50ae514138bb57bbda3f192660754a01bb696b934ae71776c0,2939,False,keypress,testresponse_s_F,356.0,['Shorter'],choice-response,Longer,6007b9b68ffa26e0d13be3ad,e300ms_delay_2_83,4700,266,e_maintaskTrials_2_s,maintaskTrials,9254f,0,0,True,8,2,3,empty,Filled
16,5ff0a827571a1af480c17fdc,Filled_empty,0,9254f32e77181c50ae514138bb57bbda3f192660754a01bb696b934ae71776c0,2939,True,keypress,testresponse_l_J,246.0,['Longer'],choice-response,Longer,6007b9b68ffa26e0d13be3ad,e300ms_delay_2_95,4766,267,e_maintaskTrials_2_l,maintaskTrials,9254f,1,0,True,9,2,5,empty,Filled
17,5ff0a827571a1af480c17fdc,Filled_empty,0,9254f32e77181c50ae514138bb57bbda3f192660754a01bb696b934ae71776c0,2939,True,keypress,testresponse_l_J,397.0,['Longer'],choice-response,Longer,6007b9b68ffa26e0d13be3ad,e300ms_delay_2_96,4920,268,e_maintaskTrials_2_l,maintaskTrials,9254f,1,0,True,9,2,6,empty,Filled
18,5ff0a827571a1af480c17fdc,Filled_empty,0,9254f32e77181c50ae514138bb57bbda3f192660754a01bb696b934ae71776c0,2939,True,keypress,testresponse_l_J,344.0,['Longer'],choice-response,Longer,6007b9b68ffa26e0d13be3ad,e300ms_delay_2_85,4777,269,e_maintaskTrials_2_l,maintaskTrials,9254f,1,0,True,8,2,5,empty,Filled
19,5ff0a827571a1af480c17fdc,Filled_empty,0,9254f32e77181c50ae514138bb57bbda3f192660754a01bb696b934ae71776c0,2939,True,keypress,testresponse_s_F,571.0,['Shorter'],choice-response,Shorter,6007b9b68ffa26e0d13be3ad,e300ms_delay_2_53,5059,270,e_maintaskTrials_2_s,maintaskTrials,9254f,1,1,True,5,2,3,empty,Filled
20,5ff0a827571a1af480c17fdc,Filled_empty,0,9254f32e77181c50ae514138bb57bbda3f192660754a01bb696b934ae71776c0,2939,True,keypress,testresponse_s_F,252.0,['Shorter'],choice-response,Shorter,6007b9b68ffa26e0d13be3ad,e300ms_delay_2_52,4534,271,e_maintaskTrials_2_s,maintaskTrials,9254f,1,1,True,5,2,2,empty,Filled
21,5ff0a827571a1af480c17fdc,Filled_empty,0,9254f32e77181c50ae514138bb57bbda3f192660754a01bb696b934ae71776c0,2939,False,keypress,testresponse_l_J,134.0,['Longer'],choice-response,Shorter,6007b9b68ffa26e0d13be3ad,e300ms_delay_2_54,4439,272,e_maintaskTrials_2_l,maintaskTrials,9254f,0,1,True,5,2,4,empty,Filled
22,5ff0a827571a1af480c17fdc,Filled_empty,0,9254f32e77181c50ae514138bb57bbda3f192660754a01bb696b934ae71776c0,2939,True,keypress,testresponse_s_F,649.0,['Shorter'],choice-response,Shorter,6007b9b68ffa26e0d13be3ad,e300ms_delay_2_82,5006,273,e_maintaskTrials_2_s,maintaskTrials,9254f,1,1,True,8,2,2,empty,Filled
23,5ff0a827571a1af480c17fdc,Filled_empty,0,9254f32e77181c50ae514138bb57bbda3f192660754a01bb696b934ae71776c0,2939,True,keypress,testresponse_s_F,193.0,['Shorter'],choice-response,Shorter,6007b9b68ffa26e0d13be3ad,e300ms_delay_2_51,4419,274,e_maintaskTrials_2_s,maintaskTrials,9254f,1,1,True,5,2,1,empty,Filled
24,5ff0a827571a1af480c17fdc,Filled_empty,0,9254f32e77181c50ae514138bb57bbda3f192660754a01bb696b934ae71776c0,2939,False,keypress,testresponse_s_F,313.0,['Shorter'],choice-response,Longer,6007b9b68ffa26e0d13be3ad,e300ms_delay_2_93,5166,275,e_maintaskTrials_2_s,maintaskTrials,9254f,0,0,True,9,2,3,empty,Filled
25,5ff0a827571a1af480c17fdc,Filled_empty,0,9254f32e77181c50ae514138bb57bbda3f192660754a01bb696b934ae71776c0,2939,True,keypress,testresponse_s_F,486.0,['Shorter'],choice-response,Shorter,6007b9b68ffa26e0d13be3ad,e300ms_delay_2_91,4983,276,e_maintaskTrials_2_s,maintaskTrials,9254f,1,1,True,9,2,1,empty,Filled
26,5ff0a827571a1af480c17fdc,Filled_empty,0,9254f32e77181c50ae514138bb57bbda3f192660754a01bb696b934ae71776c0,2939,True,keypress,testresponse_l_J,401.0,['Longer'],choice-response,Longer,6007b9b68ffa26e0d13be3ad,e300ms_delay_2_94,5240,277,e_maintaskTrials_2_l,maintaskTrials,9254f,1,0,True,9,2,4,empty,Filled
27,5ff0a827571a1af480c17fdc,Filled_empty,0,9254f32e77181c50ae514138bb57bbda3f192660754a01bb696b934ae71776c0,2939,True,keypress,testresponse_s_F,547.0,['Shorter'],choice-response,Shorter,6007b9b68ffa26e0d13be3ad,e300ms_delay_2_81,4849,278,e_maintaskTrials_2_s,maintaskTrials,9254f,1,1,True,8,2,1,empty,Filled
28,5ff0a827571a1af480c17fdc,Filled_empty,0,9254f32e77181c50ae514138bb57bbda3f192660754a01bb696b934ae71776c0,2939,True,keypress,testresponse_l_J,1250.0,['Longer'],choice-response,Longer,6007b9b68ffa26e0d13be3ad,e300ms_delay_2_86,5964,279,e_maintaskTrials_2_l,maintaskTrials,9254f,1,0,True,8,2,6,empty,Filled
29,5ff0a827571a1af480c17fdc,Filled_empty,0,9254f32e77181c50ae514138bb57bbda3f192660754a01bb696b934ae71776c0,2939,True,keypress,testresponse_l_J,706.0,['Longer'],choice-response,Longer,6007b9b68ffa26e0d13be3ad,e300ms_delay_2_95,5229,280,e_maintaskTrials_2_l,maintaskTrials,9254f,1,0,True,9,2,5,empty,Filled
30,5ff0a827571a1af480c17fdc,Filled_empty,0,9254f32e77181c50ae514138bb57bbda3f192660754a01bb696b934ae71776c0,2939,True,keypress,testresponse_l_J,1488.0,['Longer'],choice-response,Longer,6007b9b68ffa26e0d13be3ad,e300ms_delay_2_56,5805,281,e_maintaskTrials_2_l,maintaskTrials,9254f,1,0,True,5,2,6,empty,Filled
31,5ff0a827571a1af480c17fdc,Filled_empty,0,9254f32e77181c50ae514138bb57bbda3f192660754a01bb696b934ae71776c0,2939,True,keypress,testresponse_l_J,374.0,['Longer'],choice-response,Longer,6007b9b68ffa26e0d13be3ad,e300ms_delay_2_84,4849,282,e_maintaskTrials_2_l,maintaskTrials,9254f,1,0,True,8,2,4,empty,Filled
32,5ff0a827571a1af480c17fdc,Filled_empty,0,9254f32e77181c50ae514138bb57bbda3f192660754a01bb696b934ae71776c0,2939,True,keypress,testresponse_l_J,1224.0,['Longer'],choice-response,Longer,6007b9b68ffa26e0d13be3ad,e300ms_delay_2_55,5535,283,e_maintaskTrials_2_l,maintaskTrials,9254f,1,0,True,5,2,5,empty,Filled
33,5ff0a827571a1af480c17fdc,Filled_empty,0,9254f32e77181c50ae514138bb57bbda3f192660754a01bb696b934ae71776c0,2939,True,keypress,testresponse_s_F,336.0,['Shorter'],choice-response,Shorter,6007b9b68ffa26e0d13be3ad,e300ms_delay_2_92,5288,284,e_maintaskTrials_2_s,maintaskTrials,9254f,1,1,True,9,2,2,empty,Filled
34,5ff0a827571a1af480c17fdc,Filled_empty,0,9254f32e77181c50ae514138bb57bbda3f192660754a01bb696b934ae71776c0,2939,True,keypress,testresponse_s_F,572.0,['Shorter'],choice-response,Shorter,6007b9b68ffa26e0d13be3ad,e300ms_delay_2_83,4941,285,e_maintaskTrials_2_s,maintaskTrials,9254f,1,1,True,8,2,3,empty,Filled
35,5ff0a827571a1af480c17fdc,Filled_empty,0,9254f32e77181c50ae514138bb57bbda3f192660754a01bb696b934ae71776c0,2939,True,keypress,testresponse_l_J,566.0,['Longer'],choice-response,Longer,6007b9b68ffa26e0d13be3ad,e300ms_delay_2_96,5082,286,e_maintaskTrials_2_l,maintaskTrials,9254f,1,0,True,9,2,6,empty,Filled
36,5ff0a827571a1af480c17fdc,Filled_empty,0,9254f32e77181c50ae514138bb57bbda3f192660754a01bb696b934ae71776c0,2939,True,keypress,testresponse_s_F,198.0,['Shorter'],choice-response,Shorter,6007b9b68ffa26e0d13be3ad,e300ms_delay_2_51,4401,287,e_maintaskTrials_2_s,maintaskTrials,9254f,1,1,True,5,2,1,empty,Filled
37,5ff0a827571a1af480c17fdc,Filled_empty,0,9254f32e77181c50ae514138bb57bbda3f192660754a01bb696b934ae71776c0,2939,False,keypress,testresponse_l_J,1630.0,['Longer'],choice-response,Shorter,6007b9b68ffa26e0d13be3ad,e300ms_delay_2_86,6545,288,e_maintaskTrials_2_l,maintaskTrials,9254f,0,1,True,8,2,6,empty,Filled
38,5ff0a827571a1af480c17fdc,Filled_empty,0,9254f32e77181c50ae514138bb57bbda3f192660754a01bb696b934ae71776c0,2939,True,keypress,testresponse_s_F,410.0,['Shorter'],choice-response,Shorter,6007b9b68ffa26e0d13be3ad,e300ms_delay_2_81,4742,289,e_maintaskTrials_2_s,maintaskTrials,9254f,1,1,True,8,2,1,empty,Filled
39,5ff0a827571a1af480c17fdc,Filled_empty,0,9254f32e77181c50ae514138bb57bbda3f192660754a01bb696b934ae71776c0,2939,True,keypress,testresponse_s_F,312.0,['Shorter'],choice-response,Shorter,6007b9b68ffa26e0d13be3ad,e300ms_delay_2_83,4690,290,e_maintaskTrials_2_s,maintaskTrials,9254f,1,1,True,8,2,3,empty,Filled
40,5ff0a827571a1af480c17fdc,Filled_empty,0,9254f32e77181c50ae514138bb57bbda3f192660754a01bb696b934ae71776c0,2939,False,keypress,testresponse_l_J,626.0,['Longer'],choice-response,Shorter,6007b9b68ffa26e0d13be3ad,e300ms_delay_2_84,5423,291,e_maintaskTrials_2_l,maintaskTrials,9254f,0,1,True,8,2,4,empty,Filled
41,5ff0a827571a1af480c17fdc,Filled_empty,0,9254f32e77181c50ae514138bb57bbda3f192660754a01bb696b934ae71776c0,2939,False,keypress,testresponse_s_F,307.0,['Shorter'],choice-response,Longer,6007b9b68ffa26e0d13be3ad,e300ms_delay_2_92,4985,292,e_maintaskTrials_2_s,maintaskTrials,9254f,0,0,True,9,2,2,empty,Filled
42,5ff0a827571a1af480c17fdc,Filled_empty,0,9254f32e77181c50ae514138bb57bbda3f192660754a01bb696b934ae71776c0,2939,False,keypress,testresponse_s_F,848.0,['Shorter'],choice-response,Longer,6007b9b68ffa26e0d13be3ad,e300ms_delay_2_93,5522,293,e_maintaskTrials_2_s,maintaskTrials,9254f,0,0,True,9,2,3,empty,Filled
43,5ff0a827571a1af480c17fdc,Filled_empty,0,9254f32e77181c50ae514138bb57bbda3f192660754a01bb696b934ae71776c0,2939,False,keypress,testresponse_l_J,1065.0,['Longer'],choice-response,Shorter,6007b9b68ffa26e0d13be3ad,e300ms_delay_2_56,5367,294,e_maintaskTrials_2_l,maintaskTrials,9254f,0,1,True,5,2,6,empty,Filled
44,5ff0a827571a1af480c17fdc,Filled_empty,0,9254f32e77181c50ae514138bb57bbda3f192660754a01bb696b934ae71776c0,2939,True,keypress,testresponse_l_J,973.0,['Longer'],choice-response,Longer,6007b9b68ffa26e0d13be3ad,e300ms_delay_2_96,5639,295,e_maintaskTrials_2_l,maintaskTrials,9254f,1,0,True,9,2,6,empty,Filled
45,5ff0a827571a1af480c17fdc,Filled_empty,0,9254f32e77181c50ae514138bb57bbda3f192660754a01bb696b934ae71776c0,2939,False,keypress,testresponse_s_F,1018.0,['Shorter'],choice-response,Longer,6007b9b68ffa26e0d13be3ad,e300ms_delay_2_82,5368,296,e_maintaskTrials_2_s,maintaskTrials,9254f,0,0,True,8,2,2,empty,Filled
46,5ff0a827571a1af480c17fdc,Filled_empty,0,9254f32e77181c50ae514138bb57bbda3f192660754a01bb696b934ae71776c0,2939,False,keypress,testresponse_l_J,249.0,['Longer'],choice-response,Shorter,6007b9b68ffa26e0d13be3ad,e300ms_delay_2_55,4746,297,e_maintaskTrials_2_l,maintaskTrials,9254f,0,1,True,5,2,5,empty,Filled
47,5ff0a827571a1af480c17fdc,Filled_empty,0,9254f32e77181c50ae514138bb57bbda3f192660754a01bb696b934ae71776c0,2939,True,keypress,testresponse_s_F,2082.0,['Shorter'],choice-response,Shorter,6007b9b68ffa26e0d13be3ad,e300ms_delay_2_91,6451,298,e_maintaskTrials_2_s,maintaskTrials,9254f,1,1,True,9,2,1,empty,Filled
48,5ff0a827571a1af480c17fdc,Filled_empty,0,9254f32e77181c50ae514138bb57bbda3f192660754a01bb696b934ae71776c0,2939,False,keypress,testresponse_l_J,146.0,['Longer'],choice-response,Shorter,6007b9b68ffa26e0d13be3ad,e300ms_delay_2_54,4412,299,e_maintaskTrials_2_l,maintaskTrials,9254f,0,1,True,5,2,4,empty,Filled
49,5ff0a827571a1af480c17fdc,Filled_empty,0,9254f32e77181c50ae514138bb57bbda3f192660754a01bb696b934ae71776c0,2939,True,keypress,testresponse_s_F,931.0,['Shorter'],choice-response,Shorter,6007b9b68ffa26e0d13be3ad,e300ms_delay_2_52,5191,300,e_maintaskTrials_2_s,maintaskTrials,9254f,1,1,True,5,2,2,empty,Filled
50,5ff0a827571a1af480c17fdc,Filled_empty,0,9254f32e77181c50ae514138bb57bbda3f192660754a01bb696b934ae71776c0,2939,False,keypress,testresponse_l_J,1163.0,['Longer'],choice-response,Shorter,6007b9b68ffa26e0d13be3ad,e300ms_delay_2_95,5641,301,e_maintaskTrials_2_l,maintaskTrials,9254f,0,1,True,9,2,5,empty,Filled
51,5ff0a827571a1af480c17fdc,Filled_empty,0,9254f32e77181c50ae514138bb57bbda3f192660754a01bb696b934ae71776c0,2939,True,keypress,testresponse_s_F,1341.0,['Shorter'],choice-response,Shorter,6007b9b68ffa26e0d13be3ad,e300ms_delay_2_53,5650,302,e_maintaskTrials_2_s,maintaskTrials,9254f,1,1,True,5,2,3,empty,Filled
52,5ff0a827571a1af480c17fdc,Filled_empty,0,9254f32e77181c50ae514138bb57bbda3f192660754a01bb696b934ae71776c0,2939,True,keypress,testresponse_l_J,324.0,['Longer'],choice-response,Longer,6007b9b68ffa26e0d13be3ad,e300ms_delay_2_85,4820,303,e_maintaskTrials_2_l,maintaskTrials,9254f,1,0,True,8,2,5,empty,Filled
53,5ff0a827571a1af480c17fdc,Filled_empty,0,9254f32e77181c50ae514138bb57bbda3f192660754a01bb696b934ae71776c0,2939,True,keypress,testresponse_l_J,429.0,['Longer'],choice-response,Longer,6007b9b68ffa26e0d13be3ad,e300ms_delay_2_94,5107,304,e_maintaskTrials_2_l,maintaskTrials,9254f,1,0,True,9,2,4,empty,Filled
54,5ff0a827571a1af480c17fdc,Filled_empty,0,9254f32e77181c50ae514138bb57bbda3f192660754a01bb696b934ae71776c0,2939,True,keypress,testresponse_l_J,1215.0,['Longer'],choice-response,Longer,6007b9b68ffa26e0d13be3ad,e300ms_delay_2_85,5597,305,e_maintaskTrials_2_l,maintaskTrials,9254f,1,0,True,8,2,5,empty,Filled
55,5ff0a827571a1af480c17fdc,Filled_empty,0,9254f32e77181c50ae514138bb57bbda3f192660754a01bb696b934ae71776c0,2939,True,keypress,testresponse_l_J,532.0,['Longer'],choice-response,Longer,6007b9b68ffa26e0d13be3ad,e300ms_delay_2_94,4975,306,e_maintaskTrials_2_l,maintaskTrials,9254f,1,0,True,9,2,4,empty,Filled
56,5ff0a827571a1af480c17fdc,Filled_empty,0,9254f32e77181c50ae514138bb57bbda3f192660754a01bb696b934ae71776c0,2939,True,keypress,testresponse_l_J,398.0,['Longer'],choice-response,Longer,6007b9b68ffa26e0d13be3ad,e300ms_delay_2_95,4873,307,e_maintaskTrials_2_l,maintaskTrials,9254f,1,0,True,9,2,5,empty,Filled
57,5ff0a827571a1af480c17fdc,Filled_empty,0,9254f32e77181c50ae514138bb57bbda3f192660754a01bb696b934ae71776c0,2939,False,keypress,testresponse_l_J,249.0,['Longer'],choice-response,Shorter,6007b9b68ffa26e0d13be3ad,e300ms_delay_2_54,4552,308,e_maintaskTrials_2_l,maintaskTrials,9254f,0,1,True,5,2,4,empty,Filled
58,5ff0a827571a1af480c17fdc,Filled_empty,0,9254f32e77181c50ae514138bb57bbda3f192660754a01bb696b934ae71776c0,2939,True,keypress,testresponse_s_F,182.0,['Shorter'],choice-response,Shorter,6007b9b68ffa26e0d13be3ad,e300ms_delay_2_51,4461,309,e_maintaskTrials_2_s,maintaskTrials,9254f,1,1,True,5,2,1,empty,Filled
59,5ff0a827571a1af480c17fdc,Filled_empty,0,9254f32e77181c50ae514138bb57bbda3f192660754a01bb696b934ae71776c0,2939,False,keypress,testresponse_s_F,1105.0,['Shorter'],choice-response,Longer,6007b9b68ffa26e0d13be3ad,e300ms_delay_2_53,5412,310,e_maintaskTrials_2_s,maintaskTrials,9254f,0,0,True,5,2,3,empty,Filled
60,5ff0a827571a1af480c17fdc,Filled_empty,0,9254f32e77181c50ae514138bb57bbda3f192660754a01bb696b934ae71776c0,2939,False,keypress,testresponse_l_J,1998.0,['Longer'],choice-response,Shorter,6007b9b68ffa26e0d13be3ad,e300ms_delay_2_84,6405,311,e_maintaskTrials_2_l,maintaskTrials,9254f,0,1,True,8,2,4,empty,Filled
61,5ff0a827571a1af480c17fdc,Filled_empty,0,9254f32e77181c50ae514138bb57bbda3f192660754a01bb696b934ae71776c0,2939,False,keypress,testresponse_l_J,727.0,['Longer'],choice-response,Shorter,6007b9b68ffa26e0d13be3ad,e300ms_delay_2_56,5115,312,e_maintaskTrials_2_l,maintaskTrials,9254f,0,1,True,5,2,6,empty,Filled
62,5ff0a827571a1af480c17fdc,Filled_empty,0,9254f32e77181c50ae514138bb57bbda3f192660754a01bb696b934ae71776c0,2939,False,keypress,testresponse_s_F,2175.0,['Shorter'],choice-response,Longer,6007b9b68ffa26e0d13be3ad,e300ms_delay_2_83,6552,313,e_maintaskTrials_2_s,maintaskTrials,9254f,0,0,True,8,2,3,empty,Filled
63,5ff0a827571a1af480c17fdc,Filled_empty,0,9254f32e77181c50ae514138bb57bbda3f192660754a01bb696b934ae71776c0,2939,True,keypress,testresponse_s_F,1195.0,['Shorter'],choice-response,Shorter,6007b9b68ffa26e0d13be3ad,e300ms_delay_2_91,6131,314,e_maintaskTrials_2_s,maintaskTrials,9254f,1,1,True,9,2,1,empty,Filled
64,5ff0a827571a1af480c17fdc,Filled_empty,0,9254f32e77181c50ae514138bb57bbda3f192660754a01bb696b934ae71776c0,2939,False,keypress,testresponse_l_J,1405.0,['Longer'],choice-response,Shorter,6007b9b68ffa26e0d13be3ad,e300ms_delay_2_86,6309,315,e_maintaskTrials_2_l,maintaskTrials,9254f,0,1,True,8,2,6,empty,Filled
65,5ff0a827571a1af480c17fdc,Filled_empty,0,9254f32e77181c50ae514138bb57bbda3f192660754a01bb696b934ae71776c0,2939,True,keypress,testresponse_s_F,617.0,['Shorter'],choice-response,Shorter,6007b9b68ffa26e0d13be3ad,e300ms_delay_2_81,5176,316,e_maintaskTrials_2_s,maintaskTrials,9254f,1,1,True,8,2,1,empty,Filled
66,5ff0a827571a1af480c17fdc,Filled_empty,0,9254f32e77181c50ae514138bb57bbda3f192660754a01bb696b934ae71776c0,2939,False,keypress,testresponse_s_F,458.0,['Shorter'],choice-response,Longer,6007b9b68ffa26e0d13be3ad,e300ms_delay_2_82,5266,317,e_maintaskTrials_2_s,maintaskTrials,9254f,0,0,True,8,2,2,empty,Filled
67,5ff0a827571a1af480c17fdc,Filled_empty,0,9254f32e77181c50ae514138bb57bbda3f192660754a01bb696b934ae71776c0,2939,True,keypress,testresponse_l_J,907.0,['Longer'],choice-response,Longer,6007b9b68ffa26e0d13be3ad,e300ms_delay_2_96,6110,318,e_maintaskTrials_2_l,maintaskTrials,9254f,1,0,True,9,2,6,empty,Filled
68,5ff0a827571a1af480c17fdc,Filled_empty,0,9254f32e77181c50ae514138bb57bbda3f192660754a01bb696b934ae71776c0,2939,True,keypress,testresponse_s_F,774.0,['Shorter'],choice-response,Shorter,6007b9b68ffa26e0d13be3ad,e300ms_delay_2_92,5506,319,e_maintaskTrials_2_s,maintaskTrials,9254f,1,1,True,9,2,2,empty,Filled
69,5ff0a827571a1af480c17fdc,Filled_empty,0,9254f32e77181c50ae514138bb57bbda3f192660754a01bb696b934ae71776c0,2939,False,keypress,testresponse_s_F,1908.0,['Shorter'],choice-response,Longer,6007b9b68ffa26e0d13be3ad,e300ms_delay_2_93,6942,320,e_maintaskTrials_2_s,maintaskTrials,9254f,0,0,True,9,2,3,empty,Filled
70,5ff0a827571a1af480c17fdc,Filled_empty,0,9254f32e77181c50ae514138bb57bbda3f192660754a01bb696b934ae71776c0,2939,True,keypress,testresponse_s_F,2193.0,['Shorter'],choice-response,Shorter,6007b9b68ffa26e0d13be3ad,e300ms_delay_2_52,6837,321,e_maintaskTrials_2_s,maintaskTrials,9254f,1,1,True,5,2,2,empty,Filled
71,5ff0a827571a1af480c17fdc,Filled_empty,0,9254f32e77181c50ae514138bb57bbda3f192660754a01bb696b934ae71776c0,2939,True,keypress,testresponse_l_J,1927.0,['Longer'],choice-response,Longer,6007b9b68ffa26e0d13be3ad,e300ms_delay_2_55,6822,322,e_maintaskTrials_2_l,maintaskTrials,9254f,1,0,True,5,2,5,empty,Filled
72,5ff0a827571a1af480c17fdc,Filled_empty,0,9254f32e77181c50ae514138bb57bbda3f192660754a01bb696b934ae71776c0,2939,True,keypress,testresponse_s_F,1636.0,['Shorter'],choice-response,Shorter,6007b9b68ffa26e0d13be3ad,e300ms_delay_2_82,5987,323,e_maintaskTrials_2_s,maintaskTrials,9254f,1,1,True,8,2,2,empty,Filled
73,5ff0a827571a1af480c17fdc,Filled_empty,0,9254f32e77181c50ae514138bb57bbda3f192660754a01bb696b934ae71776c0,2939,False,keypress,testresponse_s_F,771.0,['Shorter'],choice-response,Longer,6007b9b68ffa26e0d13be3ad,e300ms_delay_2_91,5159,324,e_maintaskTrials_2_s,maintaskTrials,9254f,0,0,True,9,2,1,empty,Filled
74,5ff0a827571a1af480c17fdc,Filled_empty,0,9254f32e77181c50ae514138bb57bbda3f192660754a01bb696b934ae71776c0,2939,True,keypress,testresponse_s_F,1311.0,['Shorter'],choice-response,Shorter,6007b9b68ffa26e0d13be3ad,e300ms_delay_2_93,6156,325,e_maintaskTrials_2_s,maintaskTrials,9254f,1,1,True,9,2,3,empty,Filled
75,5ff0a827571a1af480c17fdc,Filled_empty,0,9254f32e77181c50ae514138bb57bbda3f192660754a01bb696b934ae71776c0,2939,True,keypress,testresponse_s_F,738.0,['Shorter'],choice-response,Shorter,6007b9b68ffa26e0d13be3ad,e300ms_delay_2_52,5024,326,e_maintaskTrials_2_s,maintaskTrials,9254f,1,1,True,5,2,2,empty,Filled
76,5ff0a827571a1af480c17fdc,Filled_empty,0,9254f32e77181c50ae514138bb57bbda3f192660754a01bb696b934ae71776c0,2939,False,keypress,testresponse_l_J,1409.0,['Longer'],choice-response,Shorter,6007b9b68ffa26e0d13be3ad,e300ms_delay_2_86,5925,327,e_maintaskTrials_2_l,maintaskTrials,9254f,0,1,True,8,2,6,empty,Filled
77,5ff0a827571a1af480c17fdc,Filled_empty,0,9254f32e77181c50ae514138bb57bbda3f192660754a01bb696b934ae71776c0,2939,True,keypress,testresponse_l_J,693.0,['Longer'],choice-response,Longer,6007b9b68ffa26e0d13be3ad,e300ms_delay_2_94,5201,328,e_maintaskTrials_2_l,maintaskTrials,9254f,1,0,True,9,2,4,empty,Filled
78,5ff0a827571a1af480c17fdc,Filled_empty,0,9254f32e77181c50ae514138bb57bbda3f192660754a01bb696b934ae71776c0,2939,True,keypress,testresponse_l_J,894.0,['Longer'],choice-response,Longer,6007b9b68ffa26e0d13be3ad,e300ms_delay_2_84,5243,329,e_maintaskTrials_2_l,maintaskTrials,9254f,1,0,True,8,2,4,empty,Filled
79,5ff0a827571a1af480c17fdc,Filled_empty,0,9254f32e77181c50ae514138bb57bbda3f192660754a01bb696b934ae71776c0,2939,True,keypress,testresponse_s_F,503.0,['Shorter'],choice-response,Shorter,6007b9b68ffa26e0d13be3ad,e300ms_delay_2_92,4908,330,e_maintaskTrials_2_s,maintaskTrials,9254f,1,1,True,9,2,2,empty,Filled
80,5ff0a827571a1af480c17fdc,Filled_empty,0,9254f32e77181c50ae514138bb57bbda3f192660754a01bb696b934ae71776c0,2939,False,keypress,testresponse_l_J,1348.0,['Longer'],choice-response,Shorter,6007b9b68ffa26e0d13be3ad,e300ms_delay_2_85,6206,331,e_maintaskTrials_2_l,maintaskTrials,9254f,0,1,True,8,2,5,empty,Filled
81,5ff0a827571a1af480c17fdc,Filled_empty,0,9254f32e77181c50ae514138bb57bbda3f192660754a01bb696b934ae71776c0,2939,False,keypress,testresponse_l_J,771.0,['Longer'],choice-response,Shorter,6007b9b68ffa26e0d13be3ad,e300ms_delay_2_96,6343,332,e_maintaskTrials_2_l,maintaskTrials,9254f,0,1,True,9,2,6,empty,Filled
82,5ff0a827571a1af480c17fdc,Filled_empty,0,9254f32e77181c50ae514138bb57bbda3f192660754a01bb696b934ae71776c0,2939,False,keypress,testresponse_l_J,704.0,['Longer'],choice-response,Shorter,6007b9b68ffa26e0d13be3ad,e300ms_delay_2_54,4993,333,e_maintaskTrials_2_l,maintaskTrials,9254f,0,1,True,5,2,4,empty,Filled
83,5ff0a827571a1af480c17fdc,Filled_empty,0,9254f32e77181c50ae514138bb57bbda3f192660754a01bb696b934ae71776c0,2939,True,keypress,testresponse_l_J,496.0,['Longer'],choice-response,Longer,6007b9b68ffa26e0d13be3ad,e300ms_delay_2_95,5434,334,e_maintaskTrials_2_l,maintaskTrials,9254f,1,0,True,9,2,5,empty,Filled
84,5ff0a827571a1af480c17fdc,Filled_empty,0,9254f32e77181c50ae514138bb57bbda3f192660754a01bb696b934ae71776c0,2939,False,keypress,testresponse_s_F,1328.0,['Shorter'],choice-response,Longer,6007b9b68ffa26e0d13be3ad,e300ms_delay_2_83,5702,335,e_maintaskTrials_2_s,maintaskTrials,9254f,0,0,True,8,2,3,empty,Filled
85,5ff0a827571a1af480c17fdc,Filled_empty,0,9254f32e77181c50ae514138bb57bbda3f192660754a01bb696b934ae71776c0,2939,True,keypress,testresponse_s_F,1259.0,['Shorter'],choice-response,Shorter,6007b9b68ffa26e0d13be3ad,e300ms_delay_2_81,6039,336,e_maintaskTrials_2_s,maintaskTrials,9254f,1,1,True,8,2,1,empty,Filled
86,5ff0a827571a1af480c17fdc,Filled_empty,0,9254f32e77181c50ae514138bb57bbda3f192660754a01bb696b934ae71776c0,2939,True,keypress,testresponse_s_F,348.0,['Shorter'],choice-response,Shorter,6007b9b68ffa26e0d13be3ad,e300ms_delay_2_51,4581,337,e_maintaskTrials_2_s,maintaskTrials,9254f,1,1,True,5,2,1,empty,Filled
87,5ff0a827571a1af480c17fdc,Filled_empty,0,9254f32e77181c50ae514138bb57bbda3f192660754a01bb696b934ae71776c0,2939,False,keypress,testresponse_l_J,245.0,['Longer'],choice-response,Shorter,6007b9b68ffa26e0d13be3ad,e300ms_delay_2_56,4699,338,e_maintaskTrials_2_l,maintaskTrials,9254f,0,1,True,5,2,6,empty,Filled
88,5ff0a827571a1af480c17fdc,Filled_empty,0,9254f32e77181c50ae514138bb57bbda3f192660754a01bb696b934ae71776c0,2939,True,keypress,testresponse_s_F,444.0,['Shorter'],choice-response,Shorter,6007b9b68ffa26e0d13be3ad,e300ms_delay_2_53,4984,339,e_maintaskTrials_2_s,maintaskTrials,9254f,1,1,True,5,2,3,empty,Filled
89,5ff0a827571a1af480c17fdc,Filled_empty,0,9254f32e77181c50ae514138bb57bbda3f192660754a01bb696b934ae71776c0,2939,True,keypress,testresponse_l_J,1014.0,['Longer'],choice-response,Longer,6007b9b68ffa26e0d13be3ad,e300ms_delay_2_55,5889,340,e_maintaskTrials_2_l,maintaskTrials,9254f,1,0,True,5,2,5,empty,Filled
90,5ff0a827571a1af480c17fdc,Filled_empty,0,9254f32e77181c50ae514138bb57bbda3f192660754a01bb696b934ae71776c0,2939,False,keypress,testresponse_s_F,957.0,['Shorter'],choice-response,Longer,6007b9b68ffa26e0d13be3ad,e300ms_delay_2_81,5284,341,e_maintaskTrials_2_s,maintaskTrials,9254f,0,0,True,8,2,1,empty,Filled
91,5ff0a827571a1af480c17fdc,Filled_empty,0,9254f32e77181c50ae514138bb57bbda3f192660754a01bb696b934ae71776c0,2939,False,keypress,testresponse_l_J,1533.0,['Longer'],choice-response,Shorter,6007b9b68ffa26e0d13be3ad,e300ms_delay_2_84,5938,342,e_maintaskTrials_2_l,maintaskTrials,9254f,0,1,True,8,2,4,empty,Filled
92,5ff0a827571a1af480c17fdc,Filled_empty,0,9254f32e77181c50ae514138bb57bbda3f192660754a01bb696b934ae71776c0,2939,False,keypress,testresponse_l_J,240.0,['Longer'],choice-response,Shorter,6007b9b68ffa26e0d13be3ad,e300ms_delay_2_54,4965,343,e_maintaskTrials_2_l,maintaskTrials,9254f,0,1,True,5,2,4,empty,Filled
93,5ff0a827571a1af480c17fdc,Filled_empty,0,9254f32e77181c50ae514138bb57bbda3f192660754a01bb696b934ae71776c0,2939,False,keypress,testresponse_l_J,1954.0,['Longer'],choice-response,Shorter,6007b9b68ffa26e0d13be3ad,e300ms_delay_2_56,6716,344,e_maintaskTrials_2_l,maintaskTrials,9254f,0,1,True,5,2,6,empty,Filled
94,5ff0a827571a1af480c17fdc,Filled_empty,0,9254f32e77181c50ae514138bb57bbda3f192660754a01bb696b934ae71776c0,2939,True,keypress,testresponse_s_F,1245.0,['Shorter'],choice-response,Shorter,6007b9b68ffa26e0d13be3ad,e300ms_delay_2_83,6105,345,e_maintaskTrials_2_s,maintaskTrials,9254f,1,1,True,8,2,3,empty,Filled
95,5ff0a827571a1af480c17fdc,Filled_empty,0,9254f32e77181c50ae514138bb57bbda3f192660754a01bb696b934ae71776c0,2939,True,keypress,testresponse_s_F,341.0,['Shorter'],choice-response,Shorter,6007b9b68ffa26e0d13be3ad,e300ms_delay_2_53,4586,346,e_maintaskTrials_2_s,maintaskTrials,9254f,1,1,True,5,2,3,empty,Filled
96,5ff0a827571a1af480c17fdc,Filled_empty,0,9254f32e77181c50ae514138bb57bbda3f192660754a01bb696b934ae71776c0,2939,True,keypress,testresponse_l_J,325.0,['Longer'],choice-response,Longer,6007b9b68ffa26e0d13be3ad,e300ms_delay_2_96,5261,347,e_maintaskTrials_2_l,maintaskTrials,9254f,1,0,True,9,2,6,empty,Filled
97,5ff0a827571a1af480c17fdc,Filled_empty,0,9254f32e77181c50ae514138bb57bbda3f192660754a01bb696b934ae71776c0,2939,True,keypress,testresponse_s_F,369.0,['Shorter'],choice-response,Shorter,6007b9b68ffa26e0d13be3ad,e300ms_delay_2_51,4593,348,e_maintaskTrials_2_s,maintaskTrials,9254f,1,1,True,5,2,1,empty,Filled
98,5ff0a827571a1af480c17fdc,Filled_empty,0,9254f32e77181c50ae514138bb57bbda3f192660754a01bb696b934ae71776c0,2939,True,keypress,testresponse_l_J,1244.0,['Longer'],choice-response,Longer,6007b9b68ffa26e0d13be3ad,e300ms_delay_2_95,6108,349,e_maintaskTrials_2_l,maintaskTrials,9254f,1,0,True,9,2,5,empty,Filled
99,5ff0a827571a1af480c17fdc,Filled_empty,0,9254f32e77181c50ae514138bb57bbda3f192660754a01bb696b934ae71776c0,2939,True,keypress,testresponse_l_J,397.0,['Longer'],choice-response,Longer,6007b9b68ffa26e0d13be3ad,e300ms_delay_2_86,5284,350,e_maintaskTrials_2_l,maintaskTrials,9254f,1,0,True,8,2,6,empty,Filled
100,5ff0a827571a1af480c17fdc,Filled_empty,0,9254f32e77181c50ae514138bb57bbda3f192660754a01bb696b934ae71776c0,2939,True,keypress,testresponse_l_J,472.0,['Longer'],choice-response,Longer,6007b9b68ffa26e0d13be3ad,e300ms_delay_2_94,5162,351,e_maintaskTrials_2_l,maintaskTrials,9254f,1,0,True,9,2,4,empty,Filled
101,5ff0a827571a1af480c17fdc,Filled_empty,0,9254f32e77181c50ae514138bb57bbda3f192660754a01bb696b934ae71776c0,2939,False,keypress,testresponse_l_J,135.0,['Longer'],choice-response,Shorter,6007b9b68ffa26e0d13be3ad,e300ms_delay_2_55,4448,352,e_maintaskTrials_2_l,maintaskTrials,9254f,0,1,True,5,2,5,empty,Filled
102,5ff0a827571a1af480c17fdc,Filled_empty,0,9254f32e77181c50ae514138bb57bbda3f192660754a01bb696b934ae71776c0,2939,True,keypress,testresponse_l_J,747.0,['Longer'],choice-response,Longer,6007b9b68ffa26e0d13be3ad,e300ms_delay_2_85,5142,353,e_maintaskTrials_2_l,maintaskTrials,9254f,1,0,True,8,2,5,empty,Filled
103,5ff0a827571a1af480c17fdc,Filled_empty,0,9254f32e77181c50ae514138bb57bbda3f192660754a01bb696b934ae71776c0,2939,False,keypress,testresponse_s_F,977.0,['Shorter'],choice-response,Longer,6007b9b68ffa26e0d13be3ad,e300ms_delay_2_93,5420,354,e_maintaskTrials_2_s,maintaskTrials,9254f,0,0,True,9,2,3,empty,Filled
104,5ff0a827571a1af480c17fdc,Filled_empty,0,9254f32e77181c50ae514138bb57bbda3f192660754a01bb696b934ae71776c0,2939,True,keypress,testresponse_s_F,629.0,['Shorter'],choice-response,Shorter,6007b9b68ffa26e0d13be3ad,e300ms_delay_2_91,5036,355,e_maintaskTrials_2_s,maintaskTrials,9254f,1,1,True,9,2,1,empty,Filled
105,5ff0a827571a1af480c17fdc,Filled_empty,0,9254f32e77181c50ae514138bb57bbda3f192660754a01bb696b934ae71776c0,2939,True,keypress,testresponse_s_F,1096.0,['Shorter'],choice-response,Shorter,6007b9b68ffa26e0d13be3ad,e300ms_delay_2_52,5852,356,e_maintaskTrials_2_s,maintaskTrials,9254f,1,1,True,5,2,2,empty,Filled
106,5ff0a827571a1af480c17fdc,Filled_empty,0,9254f32e77181c50ae514138bb57bbda3f192660754a01bb696b934ae71776c0,2939,True,keypress,testresponse_s_F,720.0,['Shorter'],choice-response,Shorter,6007b9b68ffa26e0d13be3ad,e300ms_delay_2_82,5263,357,e_maintaskTrials_2_s,maintaskTrials,9254f,1,1,True,8,2,2,empty,Filled
107,5ff0a827571a1af480c17fdc,Filled_empty,0,9254f32e77181c50ae514138bb57bbda3f192660754a01bb696b934ae71776c0,2939,True,keypress,testresponse_s_F,547.0,['Shorter'],choice-response,Shorter,6007b9b68ffa26e0d13be3ad,e300ms_delay_2_92,4975,358,e_maintaskTrials_2_s,maintaskTrials,9254f,1,1,True,9,2,2,empty,Filled
108,5ff0a827571a1af480c17fdc,Filled_empty,0,9254f32e77181c50ae514138bb57bbda3f192660754a01bb696b934ae71776c0,2939,False,keypress,testresponse_l_J,879.0,['Longer'],choice-response,Shorter,6007b9b68ffa26e0d13be3ad,e300ms_delay_2_55,5975,359,e_maintaskTrials_2_l,maintaskTrials,9254f,0,1,True,5,2,5,empty,Filled
109,5ff0a827571a1af480c17fdc,Filled_empty,0,9254f32e77181c50ae514138bb57bbda3f192660754a01bb696b934ae71776c0,2939,False,keypress,testresponse_l_J,831.0,['Longer'],choice-response,Shorter,6007b9b68ffa26e0d13be3ad,e300ms_delay_2_85,5662,360,e_maintaskTrials_2_l,maintaskTrials,9254f,0,1,True,8,2,5,empty,Filled
110,5ff0a827571a1af480c17fdc,Filled_empty,0,9254f32e77181c50ae514138bb57bbda3f192660754a01bb696b934ae71776c0,2939,True,keypress,testresponse_s_F,738.0,['Shorter'],choice-response,Shorter,6007b9b68ffa26e0d13be3ad,e300ms_delay_2_93,5680,361,e_maintaskTrials_2_s,maintaskTrials,9254f,1,1,True,9,2,3,empty,Filled
111,5ff0a827571a1af480c17fdc,Filled_empty,0,9254f32e77181c50ae514138bb57bbda3f192660754a01bb696b934ae71776c0,2939,False,keypress,testresponse_l_J,228.0,['Longer'],choice-response,Shorter,6007b9b68ffa26e0d13be3ad,e300ms_delay_2_54,4998,362,e_maintaskTrials_2_l,maintaskTrials,9254f,0,1,True,5,2,4,empty,Filled
112,5ff0a827571a1af480c17fdc,Filled_empty,0,9254f32e77181c50ae514138bb57bbda3f192660754a01bb696b934ae71776c0,2939,True,keypress,testresponse_s_F,1014.0,['Shorter'],choice-response,Shorter,6007b9b68ffa26e0d13be3ad,e300ms_delay_2_91,5910,363,e_maintaskTrials_2_s,maintaskTrials,9254f,1,1,True,9,2,1,empty,Filled
113,5ff0a827571a1af480c17fdc,Filled_empty,0,9254f32e77181c50ae514138bb57bbda3f192660754a01bb696b934ae71776c0,2939,False,keypress,testresponse_l_J,1919.0,['Longer'],choice-response,Shorter,6007b9b68ffa26e0d13be3ad,e300ms_delay_2_86,6326,364,e_maintaskTrials_2_l,maintaskTrials,9254f,0,1,True,8,2,6,empty,Filled
114,5ff0a827571a1af480c17fdc,Filled_empty,0,9254f32e77181c50ae514138bb57bbda3f192660754a01bb696b934ae71776c0,2939,True,keypress,testresponse_s_F,1741.0,['Shorter'],choice-response,Shorter,6007b9b68ffa26e0d13be3ad,e300ms_delay_2_81,6118,365,e_maintaskTrials_2_s,maintaskTrials,9254f,1,1,True,8,2,1,empty,Filled
115,5ff0a827571a1af480c17fdc,Filled_empty,0,9254f32e77181c50ae514138bb57bbda3f192660754a01bb696b934ae71776c0,2939,True,keypress,testresponse_s_F,483.0,['Shorter'],choice-response,Shorter,6007b9b68ffa26e0d13be3ad,e300ms_delay_2_52,5146,366,e_maintaskTrials_2_s,maintaskTrials,9254f,1,1,True,5,2,2,empty,Filled
116,5ff0a827571a1af480c17fdc,Filled_empty,0,9254f32e77181c50ae514138bb57bbda3f192660754a01bb696b934ae71776c0,2939,False,keypress,testresponse_s_F,686.0,['Shorter'],choice-response,Longer,6007b9b68ffa26e0d13be3ad,e300ms_delay_2_83,5114,367,e_maintaskTrials_2_s,maintaskTrials,9254f,0,0,True,8,2,3,empty,Filled
117,5ff0a827571a1af480c17fdc,Filled_empty,0,9254f32e77181c50ae514138bb57bbda3f192660754a01bb696b934ae71776c0,2939,True,keypress,testresponse_s_F,591.0,['Shorter'],choice-response,Shorter,6007b9b68ffa26e0d13be3ad,e300ms_delay_2_53,4900,368,e_maintaskTrials_2_s,maintaskTrials,9254f,1,1,True,5,2,3,empty,Filled
118,5ff0a827571a1af480c17fdc,Filled_empty,0,9254f32e77181c50ae514138bb57bbda3f192660754a01bb696b934ae71776c0,2939,True,keypress,testresponse_s_F,1486.0,['Shorter'],choice-response,Shorter,6007b9b68ffa26e0d13be3ad,e300ms_delay_2_92,6317,369,e_maintaskTrials_2_s,maintaskTrials,9254f,1,1,True,9,2,2,empty,Filled
119,5ff0a827571a1af480c17fdc,Filled_empty,0,9254f32e77181c50ae514138bb57bbda3f192660754a01bb696b934ae71776c0,2939,True,keypress,testresponse_s_F,1214.0,['Shorter'],choice-response,Shorter,6007b9b68ffa26e0d13be3ad,e300ms_delay_2_82,6024,370,e_maintaskTrials_2_s,maintaskTrials,9254f,1,1,True,8,2,2,empty,Filled
120,5ff0a827571a1af480c17fdc,Filled_empty,0,9254f32e77181c50ae514138bb57bbda3f192660754a01bb696b934ae71776c0,2939,True,keypress,testresponse_s_F,2249.0,['Shorter'],choice-response,Shorter,6007b9b68ffa26e0d13be3ad,e300ms_delay_2_51,7033,371,e_maintaskTrials_2_s,maintaskTrials,9254f,1,1,True,5,2,1,empty,Filled
121,5ff0a827571a1af480c17fdc,Filled_empty,0,9254f32e77181c50ae514138bb57bbda3f192660754a01bb696b934ae71776c0,2939,False,keypress,testresponse_l_J,1711.0,['Longer'],choice-response,Shorter,6007b9b68ffa26e0d13be3ad,e300ms_delay_2_56,6037,372,e_maintaskTrials_2_l,maintaskTrials,9254f,0,1,True,5,2,6,empty,Filled
122,5ff0a827571a1af480c17fdc,Filled_empty,0,9254f32e77181c50ae514138bb57bbda3f192660754a01bb696b934ae71776c0,2939,False,keypress,testresponse_l_J,659.0,['Longer'],choice-response,Shorter,6007b9b68ffa26e0d13be3ad,e300ms_delay_2_84,5479,373,e_maintaskTrials_2_l,maintaskTrials,9254f,0,1,True,8,2,4,empty,Filled
123,5ff0a827571a1af480c17fdc,Filled_empty,0,9254f32e77181c50ae514138bb57bbda3f192660754a01bb696b934ae71776c0,2939,False,keypress,testresponse_l_J,1060.0,['Longer'],choice-response,Shorter,6007b9b68ffa26e0d13be3ad,e300ms_delay_2_94,5524,374,e_maintaskTrials_2_l,maintaskTrials,9254f,0,1,True,9,2,4,empty,Filled
124,5ff0a827571a1af480c17fdc,Filled_empty,0,9254f32e77181c50ae514138bb57bbda3f192660754a01bb696b934ae71776c0,2939,True,keypress,testresponse_l_J,975.0,['Longer'],choice-response,Longer,6007b9b68ffa26e0d13be3ad,e300ms_delay_2_96,5721,375,e_maintaskTrials_2_l,maintaskTrials,9254f,1,0,True,9,2,6,empty,Filled
125,5ff0a827571a1af480c17fdc,Filled_empty,0,9254f32e77181c50ae514138bb57bbda3f192660754a01bb696b934ae71776c0,2939,True,keypress,testresponse_l_J,1075.0,['Longer'],choice-response,Longer,6007b9b68ffa26e0d13be3ad,e300ms_delay_2_95,5563,376,e_maintaskTrials_2_l,maintaskTrials,9254f,1,0,True,9,2,5,empty,Filled
126,5ff0a827571a1af480c17fdc,Filled_empty,0,9254f32e77181c50ae514138bb57bbda3f192660754a01bb696b934ae71776c0,2939,True,keypress,testresponse_s_F,623.0,['Shorter'],choice-response,Shorter,6007b9b68ffa26e0d13be3ad,e300ms_delay_2_82,5015,377,e_maintaskTrials_2_s,maintaskTrials,9254f,1,1,True,8,2,2,empty,Filled
127,5ff0a827571a1af480c17fdc,Filled_empty,0,9254f32e77181c50ae514138bb57bbda3f192660754a01bb696b934ae71776c0,2939,False,keypress,testresponse_l_J,1312.0,['Longer'],choice-response,Shorter,6007b9b68ffa26e0d13be3ad,e300ms_delay_2_54,6066,378,e_maintaskTrials_2_l,maintaskTrials,9254f,0,1,True,5,2,4,empty,Filled
128,5ff0a827571a1af480c17fdc,Filled_empty,0,9254f32e77181c50ae514138bb57bbda3f192660754a01bb696b934ae71776c0,2939,True,keypress,testresponse_s_F,2449.0,['Shorter'],choice-response,Shorter,6007b9b68ffa26e0d13be3ad,e300ms_delay_2_92,6924,379,e_maintaskTrials_2_s,maintaskTrials,9254f,1,1,True,9,2,2,empty,Filled
129,5ff0a827571a1af480c17fdc,Filled_empty,0,9254f32e77181c50ae514138bb57bbda3f192660754a01bb696b934ae71776c0,2939,True,keypress,testresponse_s_F,1966.0,['Shorter'],choice-response,Shorter,6007b9b68ffa26e0d13be3ad,e300ms_delay_2_83,7031,380,e_maintaskTrials_2_s,maintaskTrials,9254f,1,1,True,8,2,3,empty,Filled
130,5ff0a827571a1af480c17fdc,Filled_empty,0,9254f32e77181c50ae514138bb57bbda3f192660754a01bb696b934ae71776c0,2939,True,keypress,testresponse_l_J,1164.0,['Longer'],choice-response,Longer,6007b9b68ffa26e0d13be3ad,e300ms_delay_2_84,5577,381,e_maintaskTrials_2_l,maintaskTrials,9254f,1,0,True,8,2,4,empty,Filled
131,5ff0a827571a1af480c17fdc,Filled_empty,0,9254f32e77181c50ae514138bb57bbda3f192660754a01bb696b934ae71776c0,2939,False,keypress,testresponse_l_J,822.0,['Longer'],choice-response,Shorter,6007b9b68ffa26e0d13be3ad,e300ms_delay_2_95,5338,382,e_maintaskTrials_2_l,maintaskTrials,9254f,0,1,True,9,2,5,empty,Filled
132,5ff0a827571a1af480c17fdc,Filled_empty,0,9254f32e77181c50ae514138bb57bbda3f192660754a01bb696b934ae71776c0,2939,True,keypress,testresponse_s_F,996.0,['Shorter'],choice-response,Shorter,6007b9b68ffa26e0d13be3ad,e300ms_delay_2_52,5316,383,e_maintaskTrials_2_s,maintaskTrials,9254f,1,1,True,5,2,2,empty,Filled
133,5ff0a827571a1af480c17fdc,Filled_empty,0,9254f32e77181c50ae514138bb57bbda3f192660754a01bb696b934ae71776c0,2939,False,keypress,testresponse_s_F,796.0,['Shorter'],choice-response,Longer,6007b9b68ffa26e0d13be3ad,e300ms_delay_2_93,5266,384,e_maintaskTrials_2_s,maintaskTrials,9254f,0,0,True,9,2,3,empty,Filled
134,5ff0a827571a1af480c17fdc,Filled_empty,0,9254f32e77181c50ae514138bb57bbda3f192660754a01bb696b934ae71776c0,2939,True,keypress,testresponse_l_J,507.0,['Longer'],choice-response,Longer,6007b9b68ffa26e0d13be3ad,e300ms_delay_2_86,5304,385,e_maintaskTrials_2_l,maintaskTrials,9254f,1,0,True,8,2,6,empty,Filled
135,5ff0a827571a1af480c17fdc,Filled_empty,0,9254f32e77181c50ae514138bb57bbda3f192660754a01bb696b934ae71776c0,2939,False,keypress,testresponse_s_F,247.0,['Shorter'],choice-response,Longer,6007b9b68ffa26e0d13be3ad,e300ms_delay_2_53,4907,386,e_maintaskTrials_2_s,maintaskTrials,9254f,0,0,True,5,2,3,empty,Filled
136,5ff0a827571a1af480c17fdc,Filled_empty,0,9254f32e77181c50ae514138bb57bbda3f192660754a01bb696b934ae71776c0,2939,True,keypress,testresponse_s_F,509.0,['Shorter'],choice-response,Shorter,6007b9b68ffa26e0d13be3ad,e300ms_delay_2_91,5045,387,e_maintaskTrials_2_s,maintaskTrials,9254f,1,1,True,9,2,1,empty,Filled
137,5ff0a827571a1af480c17fdc,Filled_empty,0,9254f32e77181c50ae514138bb57bbda3f192660754a01bb696b934ae71776c0,2939,True,keypress,testresponse_s_F,633.0,['Shorter'],choice-response,Shorter,6007b9b68ffa26e0d13be3ad,e300ms_delay_2_51,5289,388,e_maintaskTrials_2_s,maintaskTrials,9254f,1,1,True,5,2,1,empty,Filled
138,5ff0a827571a1af480c17fdc,Filled_empty,0,9254f32e77181c50ae514138bb57bbda3f192660754a01bb696b934ae71776c0,2939,False,keypress,testresponse_l_J,704.0,['Longer'],choice-response,Shorter,6007b9b68ffa26e0d13be3ad,e300ms_delay_2_94,5174,389,e_maintaskTrials_2_l,maintaskTrials,9254f,0,1,True,9,2,4,empty,Filled
139,5ff0a827571a1af480c17fdc,Filled_empty,0,9254f32e77181c50ae514138bb57bbda3f192660754a01bb696b934ae71776c0,2939,False,keypress,testresponse_l_J,657.0,['Longer'],choice-response,Shorter,6007b9b68ffa26e0d13be3ad,e300ms_delay_2_56,5224,390,e_maintaskTrials_2_l,maintaskTrials,9254f,0,1,True,5,2,6,empty,Filled
140,5ff0a827571a1af480c17fdc,Filled_empty,0,9254f32e77181c50ae514138bb57bbda3f192660754a01bb696b934ae71776c0,2939,True,keypress,testresponse_l_J,755.0,['Longer'],choice-response,Longer,6007b9b68ffa26e0d13be3ad,e300ms_delay_2_85,5200,391,e_maintaskTrials_2_l,maintaskTrials,9254f,1,0,True,8,2,5,empty,Filled
141,5ff0a827571a1af480c17fdc,Filled_empty,0,9254f32e77181c50ae514138bb57bbda3f192660754a01bb696b934ae71776c0,2939,True,keypress,testresponse_s_F,625.0,['Shorter'],choice-response,Shorter,6007b9b68ffa26e0d13be3ad,e300ms_delay_2_81,4993,392,e_maintaskTrials_2_s,maintaskTrials,9254f,1,1,True,8,2,1,empty,Filled
142,5ff0a827571a1af480c17fdc,Filled_empty,0,9254f32e77181c50ae514138bb57bbda3f192660754a01bb696b934ae71776c0,2939,True,keypress,testresponse_l_J,1053.0,['Longer'],choice-response,Longer,6007b9b68ffa26e0d13be3ad,e300ms_delay_2_96,5977,393,e_maintaskTrials_2_l,maintaskTrials,9254f,1,0,True,9,2,6,empty,Filled
143,5ff0a827571a1af480c17fdc,Filled_empty,0,9254f32e77181c50ae514138bb57bbda3f192660754a01bb696b934ae71776c0,2939,False,keypress,testresponse_l_J,69.0,['Longer'],choice-response,Shorter,6007b9b68ffa26e0d13be3ad,e300ms_delay_2_55,4889,394,e_maintaskTrials_2_l,maintaskTrials,9254f,0,1,True,5,2,5,empty,Filled
144,5ff0a827571a1af480c17fdc,Filled_empty,0,9254f32e77181c50ae514138bb57bbda3f192660754a01bb696b934ae71776c0,2939,True,keypress,testresponse_s_F,707.0,['Shorter'],choice-response,Shorter,6007b9b68ffa26e0d13be3ad,e300ms_delay_2_93,5204,395,e_maintaskTrials_2_s,maintaskTrials,9254f,1,1,True,9,2,3,empty,Filled
145,5ff0a827571a1af480c17fdc,Filled_empty,0,9254f32e77181c50ae514138bb57bbda3f192660754a01bb696b934ae71776c0,2939,True,keypress,testresponse_s_F,621.0,['Shorter'],choice-response,Shorter,6007b9b68ffa26e0d13be3ad,e300ms_delay_2_92,5037,396,e_maintaskTrials_2_s,maintaskTrials,9254f,1,1,True,9,2,2,empty,Filled
146,5ff0a827571a1af480c17fdc,Filled_empty,0,9254f32e77181c50ae514138bb57bbda3f192660754a01bb696b934ae71776c0,2939,False,keypress,testresponse_s_F,426.0,['Shorter'],choice-response,Longer,6007b9b68ffa26e0d13be3ad,e300ms_delay_2_82,4925,397,e_maintaskTrials_2_s,maintaskTrials,9254f,0,0,True,8,2,2,empty,Filled
147,5ff0a827571a1af480c17fdc,Filled_empty,0,9254f32e77181c50ae514138bb57bbda3f192660754a01bb696b934ae71776c0,2939,True,keypress,testresponse_l_J,520.0,['Longer'],choice-response,Longer,6007b9b68ffa26e0d13be3ad,e300ms_delay_2_96,5027,398,e_maintaskTrials_2_l,maintaskTrials,9254f,1,0,True,9,2,6,empty,Filled
148,5ff0a827571a1af480c17fdc,Filled_empty,0,9254f32e77181c50ae514138bb57bbda3f192660754a01bb696b934ae71776c0,2939,False,keypress,testresponse_s_F,692.0,['Shorter'],choice-response,Longer,6007b9b68ffa26e0d13be3ad,e300ms_delay_2_83,5082,399,e_maintaskTrials_2_s,maintaskTrials,9254f,0,0,True,8,2,3,empty,Filled
149,5ff0a827571a1af480c17fdc,Filled_empty,0,9254f32e77181c50ae514138bb57bbda3f192660754a01bb696b934ae71776c0,2939,False,keypress,testresponse_s_F,449.0,['Shorter'],choice-response,Longer,6007b9b68ffa26e0d13be3ad,e300ms_delay_2_81,4880,400,e_maintaskTrials_2_s,maintaskTrials,9254f,0,0,True,8,2,1,empty,Filled
150,5ff0a827571a1af480c17fdc,Filled_empty,0,9254f32e77181c50ae514138bb57bbda3f192660754a01bb696b934ae71776c0,2939,True,keypress,testresponse_s_F,689.0,['Shorter'],choice-response,Shorter,6007b9b68ffa26e0d13be3ad,e300ms_delay_2_52,5000,401,e_maintaskTrials_2_s,maintaskTrials,9254f,1,1,True,5,2,2,empty,Filled
151,5ff0a827571a1af480c17fdc,Filled_empty,0,9254f32e77181c50ae514138bb57bbda3f192660754a01bb696b934ae71776c0,2939,True,keypress,testresponse_l_J,292.0,['Longer'],choice-response,Longer,6007b9b68ffa26e0d13be3ad,e300ms_delay_2_86,4725,402,e_maintaskTrials_2_l,maintaskTrials,9254f,1,0,True,8,2,6,empty,Filled
152,5ff0a827571a1af480c17fdc,Filled_empty,0,9254f32e77181c50ae514138bb57bbda3f192660754a01bb696b934ae71776c0,2939,True,keypress,testresponse_l_J,565.0,['Longer'],choice-response,Longer,6007b9b68ffa26e0d13be3ad,e300ms_delay_2_54,5481,403,e_maintaskTrials_2_l,maintaskTrials,9254f,1,0,True,5,2,4,empty,Filled
153,5ff0a827571a1af480c17fdc,Filled_empty,0,9254f32e77181c50ae514138bb57bbda3f192660754a01bb696b934ae71776c0,2939,True,keypress,testresponse_l_J,444.0,['Longer'],choice-response,Longer,6007b9b68ffa26e0d13be3ad,e300ms_delay_2_85,4852,404,e_maintaskTrials_2_l,maintaskTrials,9254f,1,0,True,8,2,5,empty,Filled
154,5ff0a827571a1af480c17fdc,Filled_empty,0,9254f32e77181c50ae514138bb57bbda3f192660754a01bb696b934ae71776c0,2939,True,keypress,testresponse_l_J,494.0,['Longer'],choice-response,Longer,6007b9b68ffa26e0d13be3ad,e300ms_delay_2_84,4941,405,e_maintaskTrials_2_l,maintaskTrials,9254f,1,0,True,8,2,4,empty,Filled
155,5ff0a827571a1af480c17fdc,Filled_empty,0,9254f32e77181c50ae514138bb57bbda3f192660754a01bb696b934ae71776c0,2939,True,keypress,testresponse_l_J,1264.0,['Longer'],choice-response,Longer,6007b9b68ffa26e0d13be3ad,e300ms_delay_2_56,6106,406,e_maintaskTrials_2_l,maintaskTrials,9254f,1,0,True,5,2,6,empty,Filled
156,5ff0a827571a1af480c17fdc,Filled_empty,0,9254f32e77181c50ae514138bb57bbda3f192660754a01bb696b934ae71776c0,2939,True,keypress,testresponse_l_J,165.0,['Longer'],choice-response,Longer,6007b9b68ffa26e0d13be3ad,e300ms_delay_2_94,4621,407,e_maintaskTrials_2_l,maintaskTrials,9254f,1,0,True,9,2,4,empty,Filled
157,5ff0a827571a1af480c17fdc,Filled_empty,0,9254f32e77181c50ae514138bb57bbda3f192660754a01bb696b934ae71776c0,2939,True,keypress,testresponse_s_F,454.0,['Shorter'],choice-response,Shorter,6007b9b68ffa26e0d13be3ad,e300ms_delay_2_53,5179,408,e_maintaskTrials_2_s,maintaskTrials,9254f,1,1,True,5,2,3,empty,Filled
158,5ff0a827571a1af480c17fdc,Filled_empty,0,9254f32e77181c50ae514138bb57bbda3f192660754a01bb696b934ae71776c0,2939,True,keypress,testresponse_l_J,783.0,['Longer'],choice-response,Longer,6007b9b68ffa26e0d13be3ad,e300ms_delay_2_95,5388,409,e_maintaskTrials_2_l,maintaskTrials,9254f,1,0,True,9,2,5,empty,Filled
159,5ff0a827571a1af480c17fdc,Filled_empty,0,9254f32e77181c50ae514138bb57bbda3f192660754a01bb696b934ae71776c0,2939,True,keypress,testresponse_s_F,1320.0,['Shorter'],choice-response,Shorter,6007b9b68ffa26e0d13be3ad,e300ms_delay_2_91,5746,410,e_maintaskTrials_2_s,maintaskTrials,9254f,1,1,True,9,2,1,empty,Filled
160,5ff0a827571a1af480c17fdc,Filled_empty,0,9254f32e77181c50ae514138bb57bbda3f192660754a01bb696b934ae71776c0,2939,True,keypress,testresponse_l_J,545.0,['Longer'],choice-response,Longer,6007b9b68ffa26e0d13be3ad,e300ms_delay_2_55,4903,411,e_maintaskTrials_2_l,maintaskTrials,9254f,1,0,True,5,2,5,empty,Filled
161,5ff0a827571a1af480c17fdc,Filled_empty,0,9254f32e77181c50ae514138bb57bbda3f192660754a01bb696b934ae71776c0,2939,False,keypress,testresponse_s_F,1935.0,['Shorter'],choice-response,Longer,6007b9b68ffa26e0d13be3ad,e300ms_delay_2_51,6130,412,e_maintaskTrials_2_s,maintaskTrials,9254f,0,0,True,5,2,1,empty,Filled
162,5ff0a827571a1af480c17fdc,Filled_empty,0,9254f32e77181c50ae514138bb57bbda3f192660754a01bb696b934ae71776c0,2939,False,keypress,testresponse_l_J,1397.0,['Longer'],choice-response,Shorter,6007b9b68ffa26e0d13be3ad,e300ms_delay_2_56,5695,413,e_maintaskTrials_2_l,maintaskTrials,9254f,0,1,True,5,2,6,empty,Filled
163,5ff0a827571a1af480c17fdc,Filled_empty,0,9254f32e77181c50ae514138bb57bbda3f192660754a01bb696b934ae71776c0,2939,False,keypress,testresponse_l_J,1485.0,['Longer'],choice-response,Shorter,6007b9b68ffa26e0d13be3ad,e300ms_delay_2_94,6470,414,e_maintaskTrials_2_l,maintaskTrials,9254f,0,1,True,9,2,4,empty,Filled
164,5ff0a827571a1af480c17fdc,Filled_empty,0,9254f32e77181c50ae514138bb57bbda3f192660754a01bb696b934ae71776c0,2939,True,keypress,testresponse_s_F,4624.0,['Shorter'],choice-response,Shorter,6007b9b68ffa26e0d13be3ad,e300ms_delay_2_93,9519,415,e_maintaskTrials_2_s,maintaskTrials,9254f,1,1,True,9,2,3,empty,Filled
165,5ff0a827571a1af480c17fdc,Filled_empty,0,9254f32e77181c50ae514138bb57bbda3f192660754a01bb696b934ae71776c0,2939,True,keypress,testresponse_l_J,599.0,['Longer'],choice-response,Longer,6007b9b68ffa26e0d13be3ad,e300ms_delay_2_54,4937,416,e_maintaskTrials_2_l,maintaskTrials,9254f,1,0,True,5,2,4,empty,Filled
166,5ff0a827571a1af480c17fdc,Filled_empty,0,9254f32e77181c50ae514138bb57bbda3f192660754a01bb696b934ae71776c0,2939,True,keypress,testresponse_s_F,1654.0,['Shorter'],choice-response,Shorter,6007b9b68ffa26e0d13be3ad,e300ms_delay_2_83,6093,417,e_maintaskTrials_2_s,maintaskTrials,9254f,1,1,True,8,2,3,empty,Filled
167,5ff0a827571a1af480c17fdc,Filled_empty,0,9254f32e77181c50ae514138bb57bbda3f192660754a01bb696b934ae71776c0,2939,True,keypress,testresponse_s_F,1129.0,['Shorter'],choice-response,Shorter,6007b9b68ffa26e0d13be3ad,e300ms_delay_2_81,5452,418,e_maintaskTrials_2_s,maintaskTrials,9254f,1,1,True,8,2,1,empty,Filled
168,5ff0a827571a1af480c17fdc,Filled_empty,0,9254f32e77181c50ae514138bb57bbda3f192660754a01bb696b934ae71776c0,2939,True,keypress,testresponse_s_F,278.0,['Shorter'],choice-response,Shorter,6007b9b68ffa26e0d13be3ad,e300ms_delay_2_51,4656,419,e_maintaskTrials_2_s,maintaskTrials,9254f,1,1,True,5,2,1,empty,Filled
169,5ff0a827571a1af480c17fdc,Filled_empty,0,9254f32e77181c50ae514138bb57bbda3f192660754a01bb696b934ae71776c0,2939,False,keypress,testresponse_l_J,152.0,['Longer'],choice-response,Shorter,6007b9b68ffa26e0d13be3ad,e300ms_delay_2_84,4508,420,e_maintaskTrials_2_l,maintaskTrials,9254f,0,1,True,8,2,4,empty,Filled
170,5ff0a827571a1af480c17fdc,Filled_empty,0,9254f32e77181c50ae514138bb57bbda3f192660754a01bb696b934ae71776c0,2939,True,keypress,testresponse_s_F,2596.0,['Shorter'],choice-response,Shorter,6007b9b68ffa26e0d13be3ad,e300ms_delay_2_53,6946,421,e_maintaskTrials_2_s,maintaskTrials,9254f,1,1,True,5,2,3,empty,Filled
171,5ff0a827571a1af480c17fdc,Filled_empty,0,9254f32e77181c50ae514138bb57bbda3f192660754a01bb696b934ae71776c0,2939,True,keypress,testresponse_s_F,6307.0,['Shorter'],choice-response,Shorter,6007b9b68ffa26e0d13be3ad,e300ms_delay_2_91,10691,422,e_maintaskTrials_2_s,maintaskTrials,9254f,1,1,True,9,2,1,empty,Filled
172,5ff0a827571a1af480c17fdc,Filled_empty,0,9254f32e77181c50ae514138bb57bbda3f192660754a01bb696b934ae71776c0,2939,True,keypress,testresponse_s_F,872.0,['Shorter'],choice-response,Shorter,6007b9b68ffa26e0d13be3ad,e300ms_delay_2_82,5213,423,e_maintaskTrials_2_s,maintaskTrials,9254f,1,1,True,8,2,2,empty,Filled
173,5ff0a827571a1af480c17fdc,Filled_empty,0,9254f32e77181c50ae514138bb57bbda3f192660754a01bb696b934ae71776c0,2939,False,keypress,testresponse_l_J,1488.0,['Longer'],choice-response,Shorter,6007b9b68ffa26e0d13be3ad,e300ms_delay_2_95,6484,424,e_maintaskTrials_2_l,maintaskTrials,9254f,0,1,True,9,2,5,empty,Filled
174,5ff0a827571a1af480c17fdc,Filled_empty,0,9254f32e77181c50ae514138bb57bbda3f192660754a01bb696b934ae71776c0,2939,False,keypress,testresponse_l_J,1773.0,['Longer'],choice-response,Shorter,6007b9b68ffa26e0d13be3ad,e300ms_delay_2_86,6775,425,e_maintaskTrials_2_l,maintaskTrials,9254f,0,1,True,8,2,6,empty,Filled
175,5ff0a827571a1af480c17fdc,Filled_empty,0,9254f32e77181c50ae514138bb57bbda3f192660754a01bb696b934ae71776c0,2939,True,keypress,testresponse_l_J,1101.0,['Longer'],choice-response,Longer,6007b9b68ffa26e0d13be3ad,e300ms_delay_2_85,5579,426,e_maintaskTrials_2_l,maintaskTrials,9254f,1,0,True,8,2,5,empty,Filled
176,5ff0a827571a1af480c17fdc,Filled_empty,0,9254f32e77181c50ae514138bb57bbda3f192660754a01bb696b934ae71776c0,2939,True,keypress,testresponse_l_J,1162.0,['Longer'],choice-response,Longer,6007b9b68ffa26e0d13be3ad,e300ms_delay_2_96,5720,427,e_maintaskTrials_2_l,maintaskTrials,9254f,1,0,True,9,2,6,empty,Filled
177,5ff0a827571a1af480c17fdc,Filled_empty,0,9254f32e77181c50ae514138bb57bbda3f192660754a01bb696b934ae71776c0,2939,False,keypress,testresponse_l_J,1690.0,['Longer'],choice-response,Shorter,6007b9b68ffa26e0d13be3ad,e300ms_delay_2_55,6461,428,e_maintaskTrials_2_l,maintaskTrials,9254f,0,1,True,5,2,5,empty,Filled
178,5ff0a827571a1af480c17fdc,Filled_empty,0,9254f32e77181c50ae514138bb57bbda3f192660754a01bb696b934ae71776c0,2939,True,keypress,testresponse_s_F,872.0,['Shorter'],choice-response,Shorter,6007b9b68ffa26e0d13be3ad,e300ms_delay_2_52,5223,429,e_maintaskTrials_2_s,maintaskTrials,9254f,1,1,True,5,2,2,empty,Filled
179,5ff0a827571a1af480c17fdc,Filled_empty,0,9254f32e77181c50ae514138bb57bbda3f192660754a01bb696b934ae71776c0,2939,False,keypress,testresponse_s_F,3326.0,['Shorter'],choice-response,Longer,6007b9b68ffa26e0d13be3ad,e300ms_delay_2_92,7771,430,e_maintaskTrials_2_s,maintaskTrials,9254f,0,0,True,9,2,2,empty,Filled
180,5ff0a827571a1af480c17fdc,Filled_empty,0,9254f32e77181c50ae514138bb57bbda3f192660754a01bb696b934ae71776c0,2939,True,keypress,testresponse_l_J,1057.0,['Longer'],choice-response,Longer,6007b9b68ffa26e0d13be3ad,e300ms_delay_2_85,5948,431,e_maintaskTrials_2_l,maintaskTrials,9254f,1,0,True,8,2,5,empty,Filled
181,5ff0a827571a1af480c17fdc,Filled_empty,0,9254f32e77181c50ae514138bb57bbda3f192660754a01bb696b934ae71776c0,2939,False,keypress,testresponse_s_F,2656.0,['Shorter'],choice-response,Longer,6007b9b68ffa26e0d13be3ad,e300ms_delay_2_83,7044,432,e_maintaskTrials_2_s,maintaskTrials,9254f,0,0,True,8,2,3,empty,Filled
182,5ff0a827571a1af480c17fdc,Filled_empty,0,9254f32e77181c50ae514138bb57bbda3f192660754a01bb696b934ae71776c0,2939,True,keypress,testresponse_s_F,1472.0,['Shorter'],choice-response,Shorter,6007b9b68ffa26e0d13be3ad,e300ms_delay_2_52,6180,433,e_maintaskTrials_2_s,maintaskTrials,9254f,1,1,True,5,2,2,empty,Filled
183,5ff0a827571a1af480c17fdc,Filled_empty,0,9254f32e77181c50ae514138bb57bbda3f192660754a01bb696b934ae71776c0,2939,True,keypress,testresponse_l_J,1571.0,['Longer'],choice-response,Longer,6007b9b68ffa26e0d13be3ad,e300ms_delay_2_95,6716,434,e_maintaskTrials_2_l,maintaskTrials,9254f,1,0,True,9,2,5,empty,Filled
184,5ff0a827571a1af480c17fdc,Filled_empty,0,9254f32e77181c50ae514138bb57bbda3f192660754a01bb696b934ae71776c0,2939,False,keypress,testresponse_l_J,1231.0,['Longer'],choice-response,Shorter,6007b9b68ffa26e0d13be3ad,e300ms_delay_2_54,5979,435,e_maintaskTrials_2_l,maintaskTrials,9254f,0,1,True,5,2,4,empty,Filled
185,5ff0a827571a1af480c17fdc,Filled_empty,0,9254f32e77181c50ae514138bb57bbda3f192660754a01bb696b934ae71776c0,2939,True,keypress,testresponse_l_J,748.0,['Longer'],choice-response,Longer,6007b9b68ffa26e0d13be3ad,e300ms_delay_2_84,5130,436,e_maintaskTrials_2_l,maintaskTrials,9254f,1,0,True,8,2,4,empty,Filled
186,5ff0a827571a1af480c17fdc,Filled_empty,0,9254f32e77181c50ae514138bb57bbda3f192660754a01bb696b934ae71776c0,2939,True,keypress,testresponse_s_F,1314.0,['Shorter'],choice-response,Shorter,6007b9b68ffa26e0d13be3ad,e300ms_delay_2_91,5733,437,e_maintaskTrials_2_s,maintaskTrials,9254f,1,1,True,9,2,1,empty,Filled
187,5ff0a827571a1af480c17fdc,Filled_empty,0,9254f32e77181c50ae514138bb57bbda3f192660754a01bb696b934ae71776c0,2939,False,keypress,testresponse_l_J,1282.0,['Longer'],choice-response,Shorter,6007b9b68ffa26e0d13be3ad,e300ms_delay_2_56,6094,438,e_maintaskTrials_2_l,maintaskTrials,9254f,0,1,True,5,2,6,empty,Filled
188,5ff0a827571a1af480c17fdc,Filled_empty,0,9254f32e77181c50ae514138bb57bbda3f192660754a01bb696b934ae71776c0,2939,True,keypress,testresponse_s_F,707.0,['Shorter'],choice-response,Shorter,6007b9b68ffa26e0d13be3ad,e300ms_delay_2_81,5573,439,e_maintaskTrials_2_s,maintaskTrials,9254f,1,1,True,8,2,1,empty,Filled
189,5ff0a827571a1af480c17fdc,Filled_empty,0,9254f32e77181c50ae514138bb57bbda3f192660754a01bb696b934ae71776c0,2939,True,keypress,testresponse_s_F,1819.0,['Shorter'],choice-response,Shorter,6007b9b68ffa26e0d13be3ad,e300ms_delay_2_93,6299,440,e_maintaskTrials_2_s,maintaskTrials,9254f,1,1,True,9,2,3,empty,Filled
190,5ff0a827571a1af480c17fdc,Filled_empty,0,9254f32e77181c50ae514138bb57bbda3f192660754a01bb696b934ae71776c0,2939,False,keypress,testresponse_s_F,1069.0,['Shorter'],choice-response,Longer,6007b9b68ffa26e0d13be3ad,e300ms_delay_2_82,5419,441,e_maintaskTrials_2_s,maintaskTrials,9254f,0,0,True,8,2,2,empty,Filled
191,5ff0a827571a1af480c17fdc,Filled_empty,0,9254f32e77181c50ae514138bb57bbda3f192660754a01bb696b934ae71776c0,2939,True,keypress,testresponse_l_J,340.0,['Longer'],choice-response,Longer,6007b9b68ffa26e0d13be3ad,e300ms_delay_2_94,4820,442,e_maintaskTrials_2_l,maintaskTrials,9254f,1,0,True,9,2,4,empty,Filled
192,5ff0a827571a1af480c17fdc,Filled_empty,0,9254f32e77181c50ae514138bb57bbda3f192660754a01bb696b934ae71776c0,2939,False,keypress,testresponse_s_F,1144.0,['Shorter'],choice-response,Longer,6007b9b68ffa26e0d13be3ad,e300ms_delay_2_92,5587,443,e_maintaskTrials_2_s,maintaskTrials,9254f,0,0,True,9,2,2,empty,Filled
193,5ff0a827571a1af480c17fdc,Filled_empty,0,9254f32e77181c50ae514138bb57bbda3f192660754a01bb696b934ae71776c0,2939,True,keypress,testresponse_l_J,675.0,['Longer'],choice-response,Longer,6007b9b68ffa26e0d13be3ad,e300ms_delay_2_55,4993,444,e_maintaskTrials_2_l,maintaskTrials,9254f,1,0,True,5,2,5,empty,Filled
194,5ff0a827571a1af480c17fdc,Filled_empty,0,9254f32e77181c50ae514138bb57bbda3f192660754a01bb696b934ae71776c0,2939,True,keypress,testresponse_l_J,695.0,['Longer'],choice-response,Longer,6007b9b68ffa26e0d13be3ad,e300ms_delay_2_86,5187,445,e_maintaskTrials_2_l,maintaskTrials,9254f,1,0,True,8,2,6,empty,Filled
195,5ff0a827571a1af480c17fdc,Filled_empty,0,9254f32e77181c50ae514138bb57bbda3f192660754a01bb696b934ae71776c0,2939,False,keypress,testresponse_s_F,860.0,['Shorter'],choice-response,Longer,6007b9b68ffa26e0d13be3ad,e300ms_delay_2_53,5609,446,e_maintaskTrials_2_s,maintaskTrials,9254f,0,0,True,5,2,3,empty,Filled
196,5ff0a827571a1af480c17fdc,Filled_empty,0,9254f32e77181c50ae514138bb57bbda3f192660754a01bb696b934ae71776c0,2939,True,keypress,testresponse_l_J,982.0,['Longer'],choice-response,Longer,6007b9b68ffa26e0d13be3ad,e300ms_delay_2_96,5459,447,e_maintaskTrials_2_l,maintaskTrials,9254f,1,0,True,9,2,6,empty,Filled
197,5ff0a827571a1af480c17fdc,Filled_empty,0,9254f32e77181c50ae514138bb57bbda3f192660754a01bb696b934ae71776c0,2939,True,keypress,testresponse_s_F,799.0,['Shorter'],choice-response,Shorter,6007b9b68ffa26e0d13be3ad,e300ms_delay_2_51,5176,448,e_maintaskTrials_2_s,maintaskTrials,9254f,1,1,True,5,2,1,empty,Filled
198,5ff0a827571a1af480c17fdc,Filled_empty,0,9254f32e77181c50ae514138bb57bbda3f192660754a01bb696b934ae71776c0,2939,True,keypress,testresponse_s_F,1506.0,['Shorter'],choice-response,Shorter,6007b9b68ffa26e0d13be3ad,e300ms_delay_2_93,5956,449,e_maintaskTrials_2_s,maintaskTrials,9254f,1,1,True,9,2,3,empty,Filled
199,5ff0a827571a1af480c17fdc,Filled_empty,0,9254f32e77181c50ae514138bb57bbda3f192660754a01bb696b934ae71776c0,2939,False,keypress,testresponse_l_J,170.0,['Longer'],choice-response,Shorter,6007b9b68ffa26e0d13be3ad,e300ms_delay_2_55,4941,450,e_maintaskTrials_2_l,maintaskTrials,9254f,0,1,True,5,2,5,empty,Filled
200,5ff0a827571a1af480c17fdc,Filled_empty,0,9254f32e77181c50ae514138bb57bbda3f192660754a01bb696b934ae71776c0,2939,False,keypress,testresponse_s_F,532.0,['Shorter'],choice-response,Longer,6007b9b68ffa26e0d13be3ad,e300ms_delay_2_51,4781,451,e_maintaskTrials_2_s,maintaskTrials,9254f,0,0,True,5,2,1,empty,Filled
201,5ff0a827571a1af480c17fdc,Filled_empty,0,9254f32e77181c50ae514138bb57bbda3f192660754a01bb696b934ae71776c0,2939,False,keypress,testresponse_l_J,168.0,['Longer'],choice-response,Shorter,6007b9b68ffa26e0d13be3ad,e300ms_delay_2_54,4686,452,e_maintaskTrials_2_l,maintaskTrials,9254f,0,1,True,5,2,4,empty,Filled
202,5ff0a827571a1af480c17fdc,Filled_empty,0,9254f32e77181c50ae514138bb57bbda3f192660754a01bb696b934ae71776c0,2939,True,keypress,testresponse_l_J,418.0,['Longer'],choice-response,Longer,6007b9b68ffa26e0d13be3ad,e300ms_delay_2_56,4816,453,e_maintaskTrials_2_l,maintaskTrials,9254f,1,0,True,5,2,6,empty,Filled
203,5ff0a827571a1af480c17fdc,Filled_empty,0,9254f32e77181c50ae514138bb57bbda3f192660754a01bb696b934ae71776c0,2939,True,keypress,testresponse_s_F,921.0,['Shorter'],choice-response,Shorter,6007b9b68ffa26e0d13be3ad,e300ms_delay_2_83,5309,454,e_maintaskTrials_2_s,maintaskTrials,9254f,1,1,True,8,2,3,empty,Filled
204,5ff0a827571a1af480c17fdc,Filled_empty,0,9254f32e77181c50ae514138bb57bbda3f192660754a01bb696b934ae71776c0,2939,True,keypress,testresponse_s_F,785.0,['Shorter'],choice-response,Shorter,6007b9b68ffa26e0d13be3ad,e300ms_delay_2_91,5223,455,e_maintaskTrials_2_s,maintaskTrials,9254f,1,1,True,9,2,1,empty,Filled
205,5ff0a827571a1af480c17fdc,Filled_empty,0,9254f32e77181c50ae514138bb57bbda3f192660754a01bb696b934ae71776c0,2939,False,keypress,testresponse_l_J,1166.0,['Longer'],choice-response,Shorter,6007b9b68ffa26e0d13be3ad,e300ms_delay_2_95,5805,456,e_maintaskTrials_2_l,maintaskTrials,9254f,0,1,True,9,2,5,empty,Filled
206,5ff0a827571a1af480c17fdc,Filled_empty,0,9254f32e77181c50ae514138bb57bbda3f192660754a01bb696b934ae71776c0,2939,True,keypress,testresponse_l_J,346.0,['Longer'],choice-response,Longer,6007b9b68ffa26e0d13be3ad,e300ms_delay_2_84,5219,457,e_maintaskTrials_2_l,maintaskTrials,9254f,1,0,True,8,2,4,empty,Filled
207,5ff0a827571a1af480c17fdc,Filled_empty,0,9254f32e77181c50ae514138bb57bbda3f192660754a01bb696b934ae71776c0,2939,True,keypress,testresponse_l_J,761.0,['Longer'],choice-response,Longer,6007b9b68ffa26e0d13be3ad,e300ms_delay_2_86,5228,458,e_maintaskTrials_2_l,maintaskTrials,9254f,1,0,True,8,2,6,empty,Filled
208,5ff0a827571a1af480c17fdc,Filled_empty,0,9254f32e77181c50ae514138bb57bbda3f192660754a01bb696b934ae71776c0,2939,False,keypress,testresponse_s_F,319.0,['Shorter'],choice-response,Longer,6007b9b68ffa26e0d13be3ad,e300ms_delay_2_92,4883,459,e_maintaskTrials_2_s,maintaskTrials,9254f,0,0,True,9,2,2,empty,Filled
209,5ff0a827571a1af480c17fdc,Filled_empty,0,9254f32e77181c50ae514138bb57bbda3f192660754a01bb696b934ae71776c0,2939,True,keypress,testresponse_l_J,380.0,['Longer'],choice-response,Longer,6007b9b68ffa26e0d13be3ad,e300ms_delay_2_94,4992,460,e_maintaskTrials_2_l,maintaskTrials,9254f,1,0,True,9,2,4,empty,Filled
210,5ff0a827571a1af480c17fdc,Filled_empty,0,9254f32e77181c50ae514138bb57bbda3f192660754a01bb696b934ae71776c0,2939,False,keypress,testresponse_s_F,553.0,['Shorter'],choice-response,Longer,6007b9b68ffa26e0d13be3ad,e300ms_delay_2_53,5383,461,e_maintaskTrials_2_s,maintaskTrials,9254f,0,0,True,5,2,3,empty,Filled
211,5ff0a827571a1af480c17fdc,Filled_empty,0,9254f32e77181c50ae514138bb57bbda3f192660754a01bb696b934ae71776c0,2939,True,keypress,testresponse_s_F,842.0,['Shorter'],choice-response,Shorter,6007b9b68ffa26e0d13be3ad,e300ms_delay_2_52,5498,462,e_maintaskTrials_2_s,maintaskTrials,9254f,1,1,True,5,2,2,empty,Filled
212,5ff0a827571a1af480c17fdc,Filled_empty,0,9254f32e77181c50ae514138bb57bbda3f192660754a01bb696b934ae71776c0,2939,False,keypress,testresponse_l_J,679.0,['Longer'],choice-response,Shorter,6007b9b68ffa26e0d13be3ad,e300ms_delay_2_85,5130,463,e_maintaskTrials_2_l,maintaskTrials,9254f,0,1,True,8,2,5,empty,Filled
213,5ff0a827571a1af480c17fdc,Filled_empty,0,9254f32e77181c50ae514138bb57bbda3f192660754a01bb696b934ae71776c0,2939,False,keypress,testresponse_s_F,1884.0,['Shorter'],choice-response,Longer,6007b9b68ffa26e0d13be3ad,e300ms_delay_2_81,6223,464,e_maintaskTrials_2_s,maintaskTrials,9254f,0,0,True,8,2,1,empty,Filled
214,5ff0a827571a1af480c17fdc,Filled_empty,0,9254f32e77181c50ae514138bb57bbda3f192660754a01bb696b934ae71776c0,2939,True,keypress,testresponse_s_F,923.0,['Shorter'],choice-response,Shorter,6007b9b68ffa26e0d13be3ad,e300ms_delay_2_82,5762,465,e_maintaskTrials_2_s,maintaskTrials,9254f,1,1,True,8,2,2,empty,Filled
215,5ff0a827571a1af480c17fdc,Filled_empty,0,9254f32e77181c50ae514138bb57bbda3f192660754a01bb696b934ae71776c0,2939,False,keypress,testresponse_l_J,1124.0,['Longer'],choice-response,Shorter,6007b9b68ffa26e0d13be3ad,e300ms_delay_2_96,5664,466,e_maintaskTrials_2_l,maintaskTrials,9254f,0,1,True,9,2,6,empty,Filled
216,5ff0a827571a1af480c17fdc,Empty_filled,0,6fcb8bf175bc448324a3fd4fcc45ad6b1b15c5057b95fb35abf45fb45208ab2e,2786,False,keypress,testresponse_l_J,5298.0,['Longer'],choice-response,Shorter,6007b9b68ffa26e0d13be3ad,e300ms_delay_2_95,9590,19,e_maintaskTrials_2_l,maintaskTrials,6fcb8,0,1,True,9,2,5,filled,Empty
217,5ff0a827571a1af480c17fdc,Empty_filled,0,6fcb8bf175bc448324a3fd4fcc45ad6b1b15c5057b95fb35abf45fb45208ab2e,2786,True,keypress,testresponse_l_J,3019.0,['Longer'],choice-response,Longer,6007b9b68ffa26e0d13be3ad,e300ms_delay_2_85,7699,20,e_maintaskTrials_2_l,maintaskTrials,6fcb8,1,0,True,8,2,5,filled,Empty
218,5ff0a827571a1af480c17fdc,Empty_filled,0,6fcb8bf175bc448324a3fd4fcc45ad6b1b15c5057b95fb35abf45fb45208ab2e,2786,False,keypress,testresponse_l_J,3200.0,['Longer'],choice-response,Shorter,6007b9b68ffa26e0d13be3ad,e300ms_delay_2_84,7719,21,e_maintaskTrials_2_l,maintaskTrials,6fcb8,0,1,True,8,2,4,filled,Empty
219,5ff0a827571a1af480c17fdc,Empty_filled,0,6fcb8bf175bc448324a3fd4fcc45ad6b1b15c5057b95fb35abf45fb45208ab2e,2786,True,keypress,testresponse_l_J,2031.0,['Longer'],choice-response,Longer,6007b9b68ffa26e0d13be3ad,e300ms_delay_2_86,6253,22,e_maintaskTrials_2_l,maintaskTrials,6fcb8,1,0,True,8,2,6,filled,Empty
220,5ff0a827571a1af480c17fdc,Empty_filled,0,6fcb8bf175bc448324a3fd4fcc45ad6b1b15c5057b95fb35abf45fb45208ab2e,2786,True,keypress,testresponse_l_J,2167.0,['Longer'],choice-response,Longer,6007b9b68ffa26e0d13be3ad,e300ms_delay_2_56,6280,23,e_maintaskTrials_2_l,maintaskTrials,6fcb8,1,0,True,5,2,6,filled,Empty
221,5ff0a827571a1af480c17fdc,Empty_filled,0,6fcb8bf175bc448324a3fd4fcc45ad6b1b15c5057b95fb35abf45fb45208ab2e,2786,False,keypress,testresponse_l_J,3297.0,['Longer'],choice-response,Shorter,6007b9b68ffa26e0d13be3ad,e300ms_delay_2_55,7388,24,e_maintaskTrials_2_l,maintaskTrials,6fcb8,0,1,True,5,2,5,filled,Empty
222,5ff0a827571a1af480c17fdc,Empty_filled,0,6fcb8bf175bc448324a3fd4fcc45ad6b1b15c5057b95fb35abf45fb45208ab2e,2786,True,keypress,testresponse_l_J,2655.0,['Longer'],choice-response,Longer,6007b9b68ffa26e0d13be3ad,e300ms_delay_2_54,6732,25,e_maintaskTrials_2_l,maintaskTrials,6fcb8,1,0,True,5,2,4,filled,Empty
223,5ff0a827571a1af480c17fdc,Empty_filled,0,6fcb8bf175bc448324a3fd4fcc45ad6b1b15c5057b95fb35abf45fb45208ab2e,2786,True,keypress,testresponse_l_J,2067.0,['Longer'],choice-response,Longer,6007b9b68ffa26e0d13be3ad,e300ms_delay_2_94,6574,26,e_maintaskTrials_2_l,maintaskTrials,6fcb8,1,0,True,9,2,4,filled,Empty
224,5ff0a827571a1af480c17fdc,Empty_filled,0,6fcb8bf175bc448324a3fd4fcc45ad6b1b15c5057b95fb35abf45fb45208ab2e,2786,True,keypress,testresponse_s_F,1997.0,['Shorter'],choice-response,Shorter,6007b9b68ffa26e0d13be3ad,e300ms_delay_2_53,6048,27,e_maintaskTrials_2_s,maintaskTrials,6fcb8,1,1,True,5,2,3,filled,Empty
225,5ff0a827571a1af480c17fdc,Empty_filled,0,6fcb8bf175bc448324a3fd4fcc45ad6b1b15c5057b95fb35abf45fb45208ab2e,2786,True,keypress,testresponse_s_F,2419.0,['Shorter'],choice-response,Shorter,6007b9b68ffa26e0d13be3ad,e300ms_delay_2_52,6471,28,e_maintaskTrials_2_s,maintaskTrials,6fcb8,1,1,True,5,2,2,filled,Empty
226,5ff0a827571a1af480c17fdc,Empty_filled,0,6fcb8bf175bc448324a3fd4fcc45ad6b1b15c5057b95fb35abf45fb45208ab2e,2786,False,keypress,testresponse_s_F,2447.0,['Shorter'],choice-response,Longer,6007b9b68ffa26e0d13be3ad,e300ms_delay_2_82,6564,29,e_maintaskTrials_2_s,maintaskTrials,6fcb8,0,0,True,8,2,2,filled,Empty
227,5ff0a827571a1af480c17fdc,Empty_filled,0,6fcb8bf175bc448324a3fd4fcc45ad6b1b15c5057b95fb35abf45fb45208ab2e,2786,False,keypress,testresponse_s_F,1811.0,['Shorter'],choice-response,Longer,6007b9b68ffa26e0d13be3ad,e300ms_delay_2_92,6017,30,e_maintaskTrials_2_s,maintaskTrials,6fcb8,0,0,True,9,2,2,filled,Empty
228,5ff0a827571a1af480c17fdc,Empty_filled,0,6fcb8bf175bc448324a3fd4fcc45ad6b1b15c5057b95fb35abf45fb45208ab2e,2786,False,keypress,testresponse_l_J,1635.0,['Longer'],choice-response,Shorter,6007b9b68ffa26e0d13be3ad,e300ms_delay_2_96,5943,31,e_maintaskTrials_2_l,maintaskTrials,6fcb8,0,1,True,9,2,6,filled,Empty
229,5ff0a827571a1af480c17fdc,Empty_filled,0,6fcb8bf175bc448324a3fd4fcc45ad6b1b15c5057b95fb35abf45fb45208ab2e,2786,False,keypress,testresponse_s_F,896.0,['Shorter'],choice-response,Longer,6007b9b68ffa26e0d13be3ad,e300ms_delay_2_91,5102,32,e_maintaskTrials_2_s,maintaskTrials,6fcb8,0,0,True,9,2,1,filled,Empty
230,5ff0a827571a1af480c17fdc,Empty_filled,0,6fcb8bf175bc448324a3fd4fcc45ad6b1b15c5057b95fb35abf45fb45208ab2e,2786,True,keypress,testresponse_s_F,950.0,['Shorter'],choice-response,Shorter,6007b9b68ffa26e0d13be3ad,e300ms_delay_2_93,5638,33,e_maintaskTrials_2_s,maintaskTrials,6fcb8,1,1,True,9,2,3,filled,Empty
231,5ff0a827571a1af480c17fdc,Empty_filled,0,6fcb8bf175bc448324a3fd4fcc45ad6b1b15c5057b95fb35abf45fb45208ab2e,2786,True,keypress,testresponse_s_F,967.0,['Shorter'],choice-response,Shorter,6007b9b68ffa26e0d13be3ad,e300ms_delay_2_51,4997,34,e_maintaskTrials_2_s,maintaskTrials,6fcb8,1,1,True,5,2,1,filled,Empty
232,5ff0a827571a1af480c17fdc,Empty_filled,0,6fcb8bf175bc448324a3fd4fcc45ad6b1b15c5057b95fb35abf45fb45208ab2e,2786,True,keypress,testresponse_s_F,2698.0,['Shorter'],choice-response,Shorter,6007b9b68ffa26e0d13be3ad,e300ms_delay_2_81,6828,35,e_maintaskTrials_2_s,maintaskTrials,6fcb8,1,1,True,8,2,1,filled,Empty
233,5ff0a827571a1af480c17fdc,Empty_filled,0,6fcb8bf175bc448324a3fd4fcc45ad6b1b15c5057b95fb35abf45fb45208ab2e,2786,False,keypress,testresponse_s_F,671.0,['Shorter'],choice-response,Longer,6007b9b68ffa26e0d13be3ad,e300ms_delay_2_83,4834,36,e_maintaskTrials_2_s,maintaskTrials,6fcb8,0,0,True,8,2,3,filled,Empty
234,5ff0a827571a1af480c17fdc,Empty_filled,0,6fcb8bf175bc448324a3fd4fcc45ad6b1b15c5057b95fb35abf45fb45208ab2e,2786,True,keypress,testresponse_s_F,1336.0,['Shorter'],choice-response,Shorter,6007b9b68ffa26e0d13be3ad,e300ms_delay_2_91,5831,37,e_maintaskTrials_2_s,maintaskTrials,6fcb8,1,1,True,9,2,1,filled,Empty
235,5ff0a827571a1af480c17fdc,Empty_filled,0,6fcb8bf175bc448324a3fd4fcc45ad6b1b15c5057b95fb35abf45fb45208ab2e,2786,True,keypress,testresponse_s_F,971.0,['Shorter'],choice-response,Shorter,6007b9b68ffa26e0d13be3ad,e300ms_delay_2_92,5197,38,e_maintaskTrials_2_s,maintaskTrials,6fcb8,1,1,True,9,2,2,filled,Empty
236,5ff0a827571a1af480c17fdc,Empty_filled,0,6fcb8bf175bc448324a3fd4fcc45ad6b1b15c5057b95fb35abf45fb45208ab2e,2786,False,keypress,testresponse_s_F,1104.0,['Shorter'],choice-response,Longer,6007b9b68ffa26e0d13be3ad,e300ms_delay_2_93,5556,39,e_maintaskTrials_2_s,maintaskTrials,6fcb8,0,0,True,9,2,3,filled,Empty
237,5ff0a827571a1af480c17fdc,Empty_filled,0,6fcb8bf175bc448324a3fd4fcc45ad6b1b15c5057b95fb35abf45fb45208ab2e,2786,True,keypress,testresponse_s_F,1068.0,['Shorter'],choice-response,Shorter,6007b9b68ffa26e0d13be3ad,e300ms_delay_2_83,5662,40,e_maintaskTrials_2_s,maintaskTrials,6fcb8,1,1,True,8,2,3,filled,Empty
238,5ff0a827571a1af480c17fdc,Empty_filled,0,6fcb8bf175bc448324a3fd4fcc45ad6b1b15c5057b95fb35abf45fb45208ab2e,2786,True,keypress,testresponse_s_F,860.0,['Shorter'],choice-response,Shorter,6007b9b68ffa26e0d13be3ad,e300ms_delay_2_81,5447,41,e_maintaskTrials_2_s,maintaskTrials,6fcb8,1,1,True,8,2,1,filled,Empty
239,5ff0a827571a1af480c17fdc,Empty_filled,0,6fcb8bf175bc448324a3fd4fcc45ad6b1b15c5057b95fb35abf45fb45208ab2e,2786,True,keypress,testresponse_s_F,325.0,['Shorter'],choice-response,Shorter,6007b9b68ffa26e0d13be3ad,e300ms_delay_2_51,4354,42,e_maintaskTrials_2_s,maintaskTrials,6fcb8,1,1,True,5,2,1,filled,Empty
240,5ff0a827571a1af480c17fdc,Empty_filled,0,6fcb8bf175bc448324a3fd4fcc45ad6b1b15c5057b95fb35abf45fb45208ab2e,2786,True,keypress,testresponse_l_J,1482.0,['Longer'],choice-response,Longer,6007b9b68ffa26e0d13be3ad,e300ms_delay_2_95,5742,43,e_maintaskTrials_2_l,maintaskTrials,6fcb8,1,0,True,9,2,5,filled,Empty
241,5ff0a827571a1af480c17fdc,Empty_filled,0,6fcb8bf175bc448324a3fd4fcc45ad6b1b15c5057b95fb35abf45fb45208ab2e,2786,True,keypress,testresponse_s_F,824.0,['Shorter'],choice-response,Shorter,6007b9b68ffa26e0d13be3ad,e300ms_delay_2_52,5044,44,e_maintaskTrials_2_s,maintaskTrials,6fcb8,1,1,True,5,2,2,filled,Empty
242,5ff0a827571a1af480c17fdc,Empty_filled,0,6fcb8bf175bc448324a3fd4fcc45ad6b1b15c5057b95fb35abf45fb45208ab2e,2786,True,keypress,testresponse_l_J,692.0,['Longer'],choice-response,Longer,6007b9b68ffa26e0d13be3ad,e300ms_delay_2_56,4800,45,e_maintaskTrials_2_l,maintaskTrials,6fcb8,1,0,True,5,2,6,filled,Empty
243,5ff0a827571a1af480c17fdc,Empty_filled,0,6fcb8bf175bc448324a3fd4fcc45ad6b1b15c5057b95fb35abf45fb45208ab2e,2786,True,keypress,testresponse_l_J,289.0,['Longer'],choice-response,Longer,6007b9b68ffa26e0d13be3ad,e300ms_delay_2_85,4486,46,e_maintaskTrials_2_l,maintaskTrials,6fcb8,1,0,True,8,2,5,filled,Empty
244,5ff0a827571a1af480c17fdc,Empty_filled,0,6fcb8bf175bc448324a3fd4fcc45ad6b1b15c5057b95fb35abf45fb45208ab2e,2786,False,keypress,testresponse_l_J,412.0,['Longer'],choice-response,Shorter,6007b9b68ffa26e0d13be3ad,e300ms_delay_2_55,4522,47,e_maintaskTrials_2_l,maintaskTrials,6fcb8,0,1,True,5,2,5,filled,Empty
245,5ff0a827571a1af480c17fdc,Empty_filled,0,6fcb8bf175bc448324a3fd4fcc45ad6b1b15c5057b95fb35abf45fb45208ab2e,2786,True,keypress,testresponse_l_J,837.0,['Longer'],choice-response,Longer,6007b9b68ffa26e0d13be3ad,e300ms_delay_2_96,5148,48,e_maintaskTrials_2_l,maintaskTrials,6fcb8,1,0,True,9,2,6,filled,Empty
246,5ff0a827571a1af480c17fdc,Empty_filled,0,6fcb8bf175bc448324a3fd4fcc45ad6b1b15c5057b95fb35abf45fb45208ab2e,2786,False,keypress,testresponse_l_J,523.0,['Longer'],choice-response,Shorter,6007b9b68ffa26e0d13be3ad,e300ms_delay_2_94,4784,49,e_maintaskTrials_2_l,maintaskTrials,6fcb8,0,1,True,9,2,4,filled,Empty
247,5ff0a827571a1af480c17fdc,Empty_filled,0,6fcb8bf175bc448324a3fd4fcc45ad6b1b15c5057b95fb35abf45fb45208ab2e,2786,True,keypress,testresponse_s_F,385.0,['Shorter'],choice-response,Shorter,6007b9b68ffa26e0d13be3ad,e300ms_delay_2_53,4423,50,e_maintaskTrials_2_s,maintaskTrials,6fcb8,1,1,True,5,2,3,filled,Empty
248,5ff0a827571a1af480c17fdc,Empty_filled,0,6fcb8bf175bc448324a3fd4fcc45ad6b1b15c5057b95fb35abf45fb45208ab2e,2786,False,keypress,testresponse_l_J,101.0,['Longer'],choice-response,Shorter,6007b9b68ffa26e0d13be3ad,e300ms_delay_2_54,4182,51,e_maintaskTrials_2_l,maintaskTrials,6fcb8,0,1,True,5,2,4,filled,Empty
249,5ff0a827571a1af480c17fdc,Empty_filled,0,6fcb8bf175bc448324a3fd4fcc45ad6b1b15c5057b95fb35abf45fb45208ab2e,2786,True,keypress,testresponse_s_F,319.0,['Shorter'],choice-response,Shorter,6007b9b68ffa26e0d13be3ad,e300ms_delay_2_82,4760,52,e_maintaskTrials_2_s,maintaskTrials,6fcb8,1,1,True,8,2,2,filled,Empty
250,5ff0a827571a1af480c17fdc,Empty_filled,0,6fcb8bf175bc448324a3fd4fcc45ad6b1b15c5057b95fb35abf45fb45208ab2e,2786,True,keypress,testresponse_l_J,650.0,['Longer'],choice-response,Longer,6007b9b68ffa26e0d13be3ad,e300ms_delay_2_84,4800,53,e_maintaskTrials_2_l,maintaskTrials,6fcb8,1,0,True,8,2,4,filled,Empty
251,5ff0a827571a1af480c17fdc,Empty_filled,0,6fcb8bf175bc448324a3fd4fcc45ad6b1b15c5057b95fb35abf45fb45208ab2e,2786,True,keypress,testresponse_l_J,317.0,['Longer'],choice-response,Longer,6007b9b68ffa26e0d13be3ad,e300ms_delay_2_86,4530,54,e_maintaskTrials_2_l,maintaskTrials,6fcb8,1,0,True,8,2,6,filled,Empty
252,5ff0a827571a1af480c17fdc,Empty_filled,0,6fcb8bf175bc448324a3fd4fcc45ad6b1b15c5057b95fb35abf45fb45208ab2e,2786,False,keypress,testresponse_l_J,1183.0,['Longer'],choice-response,Shorter,6007b9b68ffa26e0d13be3ad,e300ms_delay_2_84,5337,55,e_maintaskTrials_2_l,maintaskTrials,6fcb8,0,1,True,8,2,4,filled,Empty
253,5ff0a827571a1af480c17fdc,Empty_filled,0,6fcb8bf175bc448324a3fd4fcc45ad6b1b15c5057b95fb35abf45fb45208ab2e,2786,False,keypress,testresponse_s_F,901.0,['Shorter'],choice-response,Longer,6007b9b68ffa26e0d13be3ad,e300ms_delay_2_83,5025,56,e_maintaskTrials_2_s,maintaskTrials,6fcb8,0,0,True,8,2,3,filled,Empty
254,5ff0a827571a1af480c17fdc,Empty_filled,0,6fcb8bf175bc448324a3fd4fcc45ad6b1b15c5057b95fb35abf45fb45208ab2e,2786,True,keypress,testresponse_l_J,904.0,['Longer'],choice-response,Longer,6007b9b68ffa26e0d13be3ad,e300ms_delay_2_85,5354,57,e_maintaskTrials_2_l,maintaskTrials,6fcb8,1,0,True,8,2,5,filled,Empty
255,5ff0a827571a1af480c17fdc,Empty_filled,0,6fcb8bf175bc448324a3fd4fcc45ad6b1b15c5057b95fb35abf45fb45208ab2e,2786,True,keypress,testresponse_s_F,242.0,['Shorter'],choice-response,Shorter,6007b9b68ffa26e0d13be3ad,e300ms_delay_2_52,4714,58,e_maintaskTrials_2_s,maintaskTrials,6fcb8,1,1,True,5,2,2,filled,Empty
256,5ff0a827571a1af480c17fdc,Empty_filled,0,6fcb8bf175bc448324a3fd4fcc45ad6b1b15c5057b95fb35abf45fb45208ab2e,2786,False,keypress,testresponse_s_F,168.0,['Shorter'],choice-response,Longer,6007b9b68ffa26e0d13be3ad,e300ms_delay_2_82,4302,59,e_maintaskTrials_2_s,maintaskTrials,6fcb8,0,0,True,8,2,2,filled,Empty
257,5ff0a827571a1af480c17fdc,Empty_filled,0,6fcb8bf175bc448324a3fd4fcc45ad6b1b15c5057b95fb35abf45fb45208ab2e,2786,True,keypress,testresponse_l_J,1284.0,['Longer'],choice-response,Longer,6007b9b68ffa26e0d13be3ad,e300ms_delay_2_94,5543,60,e_maintaskTrials_2_l,maintaskTrials,6fcb8,1,0,True,9,2,4,filled,Empty
258,5ff0a827571a1af480c17fdc,Empty_filled,0,6fcb8bf175bc448324a3fd4fcc45ad6b1b15c5057b95fb35abf45fb45208ab2e,2786,True,keypress,testresponse_s_F,129.0,['Shorter'],choice-response,Shorter,6007b9b68ffa26e0d13be3ad,e300ms_delay_2_91,4359,61,e_maintaskTrials_2_s,maintaskTrials,6fcb8,1,1,True,9,2,1,filled,Empty
259,5ff0a827571a1af480c17fdc,Empty_filled,0,6fcb8bf175bc448324a3fd4fcc45ad6b1b15c5057b95fb35abf45fb45208ab2e,2786,True,keypress,testresponse_l_J,523.0,['Longer'],choice-response,Longer,6007b9b68ffa26e0d13be3ad,e300ms_delay_2_95,4820,62,e_maintaskTrials_2_l,maintaskTrials,6fcb8,1,0,True,9,2,5,filled,Empty
260,5ff0a827571a1af480c17fdc,Empty_filled,0,6fcb8bf175bc448324a3fd4fcc45ad6b1b15c5057b95fb35abf45fb45208ab2e,2786,False,keypress,testresponse_l_J,845.0,['Longer'],choice-response,Shorter,6007b9b68ffa26e0d13be3ad,e300ms_delay_2_54,4927,63,e_maintaskTrials_2_l,maintaskTrials,6fcb8,0,1,True,5,2,4,filled,Empty
261,5ff0a827571a1af480c17fdc,Empty_filled,0,6fcb8bf175bc448324a3fd4fcc45ad6b1b15c5057b95fb35abf45fb45208ab2e,2786,True,keypress,testresponse_s_F,407.0,['Shorter'],choice-response,Shorter,6007b9b68ffa26e0d13be3ad,e300ms_delay_2_53,4962,64,e_maintaskTrials_2_s,maintaskTrials,6fcb8,1,1,True,5,2,3,filled,Empty
262,5ff0a827571a1af480c17fdc,Empty_filled,0,6fcb8bf175bc448324a3fd4fcc45ad6b1b15c5057b95fb35abf45fb45208ab2e,2786,False,keypress,testresponse_s_F,244.0,['Shorter'],choice-response,Longer,6007b9b68ffa26e0d13be3ad,e300ms_delay_2_93,4494,65,e_maintaskTrials_2_s,maintaskTrials,6fcb8,0,0,True,9,2,3,filled,Empty
263,5ff0a827571a1af480c17fdc,Empty_filled,0,6fcb8bf175bc448324a3fd4fcc45ad6b1b15c5057b95fb35abf45fb45208ab2e,2786,True,keypress,testresponse_l_J,740.0,['Longer'],choice-response,Longer,6007b9b68ffa26e0d13be3ad,e300ms_delay_2_86,4969,66,e_maintaskTrials_2_l,maintaskTrials,6fcb8,1,0,True,8,2,6,filled,Empty
264,5ff0a827571a1af480c17fdc,Empty_filled,0,6fcb8bf175bc448324a3fd4fcc45ad6b1b15c5057b95fb35abf45fb45208ab2e,2786,False,keypress,testresponse_l_J,419.0,['Longer'],choice-response,Shorter,6007b9b68ffa26e0d13be3ad,e300ms_delay_2_55,4519,67,e_maintaskTrials_2_l,maintaskTrials,6fcb8,0,1,True,5,2,5,filled,Empty
265,5ff0a827571a1af480c17fdc,Empty_filled,0,6fcb8bf175bc448324a3fd4fcc45ad6b1b15c5057b95fb35abf45fb45208ab2e,2786,True,keypress,testresponse_s_F,421.0,['Shorter'],choice-response,Shorter,6007b9b68ffa26e0d13be3ad,e300ms_delay_2_81,4518,68,e_maintaskTrials_2_s,maintaskTrials,6fcb8,1,1,True,8,2,1,filled,Empty
266,5ff0a827571a1af480c17fdc,Empty_filled,0,6fcb8bf175bc448324a3fd4fcc45ad6b1b15c5057b95fb35abf45fb45208ab2e,2786,False,keypress,testresponse_l_J,206.0,['Longer'],choice-response,Shorter,6007b9b68ffa26e0d13be3ad,e300ms_delay_2_96,4512,69,e_maintaskTrials_2_l,maintaskTrials,6fcb8,0,1,True,9,2,6,filled,Empty
267,5ff0a827571a1af480c17fdc,Empty_filled,0,6fcb8bf175bc448324a3fd4fcc45ad6b1b15c5057b95fb35abf45fb45208ab2e,2786,True,keypress,testresponse_s_F,185.0,['Shorter'],choice-response,Shorter,6007b9b68ffa26e0d13be3ad,e300ms_delay_2_51,4215,70,e_maintaskTrials_2_s,maintaskTrials,6fcb8,1,1,True,5,2,1,filled,Empty
268,5ff0a827571a1af480c17fdc,Empty_filled,0,6fcb8bf175bc448324a3fd4fcc45ad6b1b15c5057b95fb35abf45fb45208ab2e,2786,False,keypress,testresponse_s_F,84.0,['Shorter'],choice-response,Longer,6007b9b68ffa26e0d13be3ad,e300ms_delay_2_92,4279,71,e_maintaskTrials_2_s,maintaskTrials,6fcb8,0,0,True,9,2,2,filled,Empty
269,5ff0a827571a1af480c17fdc,Empty_filled,0,6fcb8bf175bc448324a3fd4fcc45ad6b1b15c5057b95fb35abf45fb45208ab2e,2786,False,keypress,testresponse_l_J,565.0,['Longer'],choice-response,Shorter,6007b9b68ffa26e0d13be3ad,e300ms_delay_2_56,5158,72,e_maintaskTrials_2_l,maintaskTrials,6fcb8,0,1,True,5,2,6,filled,Empty
270,5ff0a827571a1af480c17fdc,Empty_filled,0,6fcb8bf175bc448324a3fd4fcc45ad6b1b15c5057b95fb35abf45fb45208ab2e,2786,False,keypress,testresponse_l_J,253.0,['Longer'],choice-response,Shorter,6007b9b68ffa26e0d13be3ad,e300ms_delay_2_94,4505,73,e_maintaskTrials_2_l,maintaskTrials,6fcb8,0,1,True,9,2,4,filled,Empty
271,5ff0a827571a1af480c17fdc,Empty_filled,0,6fcb8bf175bc448324a3fd4fcc45ad6b1b15c5057b95fb35abf45fb45208ab2e,2786,True,keypress,testresponse_s_F,376.0,['Shorter'],choice-response,Shorter,6007b9b68ffa26e0d13be3ad,e300ms_delay_2_92,4592,74,e_maintaskTrials_2_s,maintaskTrials,6fcb8,1,1,True,9,2,2,filled,Empty
272,5ff0a827571a1af480c17fdc,Empty_filled,0,6fcb8bf175bc448324a3fd4fcc45ad6b1b15c5057b95fb35abf45fb45208ab2e,2786,True,keypress,testresponse_s_F,163.0,['Shorter'],choice-response,Shorter,6007b9b68ffa26e0d13be3ad,e300ms_delay_2_53,4211,75,e_maintaskTrials_2_s,maintaskTrials,6fcb8,1,1,True,5,2,3,filled,Empty
273,5ff0a827571a1af480c17fdc,Empty_filled,0,6fcb8bf175bc448324a3fd4fcc45ad6b1b15c5057b95fb35abf45fb45208ab2e,2786,False,keypress,testresponse_l_J,356.0,['Longer'],choice-response,Shorter,6007b9b68ffa26e0d13be3ad,e300ms_delay_2_96,4641,76,e_maintaskTrials_2_l,maintaskTrials,6fcb8,0,1,True,9,2,6,filled,Empty
274,5ff0a827571a1af480c17fdc,Empty_filled,0,6fcb8bf175bc448324a3fd4fcc45ad6b1b15c5057b95fb35abf45fb45208ab2e,2786,True,keypress,testresponse_l_J,459.0,['Longer'],choice-response,Longer,6007b9b68ffa26e0d13be3ad,e300ms_delay_2_56,4597,77,e_maintaskTrials_2_l,maintaskTrials,6fcb8,1,0,True,5,2,6,filled,Empty
275,5ff0a827571a1af480c17fdc,Empty_filled,0,6fcb8bf175bc448324a3fd4fcc45ad6b1b15c5057b95fb35abf45fb45208ab2e,2786,True,keypress,testresponse_l_J,166.0,['Longer'],choice-response,Longer,6007b9b68ffa26e0d13be3ad,e300ms_delay_2_85,4499,78,e_maintaskTrials_2_l,maintaskTrials,6fcb8,1,0,True,8,2,5,filled,Empty
276,5ff0a827571a1af480c17fdc,Empty_filled,0,6fcb8bf175bc448324a3fd4fcc45ad6b1b15c5057b95fb35abf45fb45208ab2e,2786,True,keypress,testresponse_s_F,1077.0,['Shorter'],choice-response,Shorter,6007b9b68ffa26e0d13be3ad,e300ms_delay_2_82,5195,79,e_maintaskTrials_2_s,maintaskTrials,6fcb8,1,1,True,8,2,2,filled,Empty
277,5ff0a827571a1af480c17fdc,Empty_filled,0,6fcb8bf175bc448324a3fd4fcc45ad6b1b15c5057b95fb35abf45fb45208ab2e,2786,False,keypress,testresponse_l_J,560.0,['Longer'],choice-response,Shorter,6007b9b68ffa26e0d13be3ad,e300ms_delay_2_95,4833,80,e_maintaskTrials_2_l,maintaskTrials,6fcb8,0,1,True,9,2,5,filled,Empty
278,5ff0a827571a1af480c17fdc,Empty_filled,0,6fcb8bf175bc448324a3fd4fcc45ad6b1b15c5057b95fb35abf45fb45208ab2e,2786,True,keypress,testresponse_s_F,527.0,['Shorter'],choice-response,Shorter,6007b9b68ffa26e0d13be3ad,e300ms_delay_2_93,4764,81,e_maintaskTrials_2_s,maintaskTrials,6fcb8,1,1,True,9,2,3,filled,Empty
279,5ff0a827571a1af480c17fdc,Empty_filled,0,6fcb8bf175bc448324a3fd4fcc45ad6b1b15c5057b95fb35abf45fb45208ab2e,2786,True,keypress,testresponse_l_J,968.0,['Longer'],choice-response,Longer,6007b9b68ffa26e0d13be3ad,e300ms_delay_2_55,5121,82,e_maintaskTrials_2_l,maintaskTrials,6fcb8,1,0,True,5,2,5,filled,Empty
280,5ff0a827571a1af480c17fdc,Empty_filled,0,6fcb8bf175bc448324a3fd4fcc45ad6b1b15c5057b95fb35abf45fb45208ab2e,2786,False,keypress,testresponse_s_F,210.0,['Shorter'],choice-response,Longer,6007b9b68ffa26e0d13be3ad,e300ms_delay_2_51,4734,83,e_maintaskTrials_2_s,maintaskTrials,6fcb8,0,0,True,5,2,1,filled,Empty
281,5ff0a827571a1af480c17fdc,Empty_filled,0,6fcb8bf175bc448324a3fd4fcc45ad6b1b15c5057b95fb35abf45fb45208ab2e,2786,False,keypress,testresponse_l_J,249.0,['Longer'],choice-response,Shorter,6007b9b68ffa26e0d13be3ad,e300ms_delay_2_86,4441,84,e_maintaskTrials_2_l,maintaskTrials,6fcb8,0,1,True,8,2,6,filled,Empty
282,5ff0a827571a1af480c17fdc,Empty_filled,0,6fcb8bf175bc448324a3fd4fcc45ad6b1b15c5057b95fb35abf45fb45208ab2e,2786,True,keypress,testresponse_s_F,626.0,['Shorter'],choice-response,Shorter,6007b9b68ffa26e0d13be3ad,e300ms_delay_2_52,4683,85,e_maintaskTrials_2_s,maintaskTrials,6fcb8,1,1,True,5,2,2,filled,Empty
283,5ff0a827571a1af480c17fdc,Empty_filled,0,6fcb8bf175bc448324a3fd4fcc45ad6b1b15c5057b95fb35abf45fb45208ab2e,2786,True,keypress,testresponse_s_F,352.0,['Shorter'],choice-response,Shorter,6007b9b68ffa26e0d13be3ad,e300ms_delay_2_81,4591,86,e_maintaskTrials_2_s,maintaskTrials,6fcb8,1,1,True,8,2,1,filled,Empty
284,5ff0a827571a1af480c17fdc,Empty_filled,0,6fcb8bf175bc448324a3fd4fcc45ad6b1b15c5057b95fb35abf45fb45208ab2e,2786,True,keypress,testresponse_l_J,929.0,['Longer'],choice-response,Longer,6007b9b68ffa26e0d13be3ad,e300ms_delay_2_54,4978,87,e_maintaskTrials_2_l,maintaskTrials,6fcb8,1,0,True,5,2,4,filled,Empty
285,5ff0a827571a1af480c17fdc,Empty_filled,0,6fcb8bf175bc448324a3fd4fcc45ad6b1b15c5057b95fb35abf45fb45208ab2e,2786,True,keypress,testresponse_s_F,535.0,['Shorter'],choice-response,Shorter,6007b9b68ffa26e0d13be3ad,e300ms_delay_2_91,4750,88,e_maintaskTrials_2_s,maintaskTrials,6fcb8,1,1,True,9,2,1,filled,Empty
286,5ff0a827571a1af480c17fdc,Empty_filled,0,6fcb8bf175bc448324a3fd4fcc45ad6b1b15c5057b95fb35abf45fb45208ab2e,2786,True,keypress,testresponse_l_J,70.0,['Longer'],choice-response,Longer,6007b9b68ffa26e0d13be3ad,e300ms_delay_2_84,4236,89,e_maintaskTrials_2_l,maintaskTrials,6fcb8,1,0,True,8,2,4,filled,Empty
287,5ff0a827571a1af480c17fdc,Empty_filled,0,6fcb8bf175bc448324a3fd4fcc45ad6b1b15c5057b95fb35abf45fb45208ab2e,2786,True,keypress,testresponse_s_F,381.0,['Shorter'],choice-response,Shorter,6007b9b68ffa26e0d13be3ad,e300ms_delay_2_83,4551,90,e_maintaskTrials_2_s,maintaskTrials,6fcb8,1,1,True,8,2,3,filled,Empty
288,5ff0a827571a1af480c17fdc,Empty_filled,0,6fcb8bf175bc448324a3fd4fcc45ad6b1b15c5057b95fb35abf45fb45208ab2e,2786,True,keypress,testresponse_l_J,294.0,['Longer'],choice-response,Longer,6007b9b68ffa26e0d13be3ad,e300ms_delay_2_54,4361,91,e_maintaskTrials_2_l,maintaskTrials,6fcb8,1,0,True,5,2,4,filled,Empty
289,5ff0a827571a1af480c17fdc,Empty_filled,0,6fcb8bf175bc448324a3fd4fcc45ad6b1b15c5057b95fb35abf45fb45208ab2e,2786,False,keypress,testresponse_l_J,261.0,['Longer'],choice-response,Shorter,6007b9b68ffa26e0d13be3ad,e300ms_delay_2_96,5039,92,e_maintaskTrials_2_l,maintaskTrials,6fcb8,0,1,True,9,2,6,filled,Empty
290,5ff0a827571a1af480c17fdc,Empty_filled,0,6fcb8bf175bc448324a3fd4fcc45ad6b1b15c5057b95fb35abf45fb45208ab2e,2786,False,keypress,testresponse_s_F,976.0,['Shorter'],choice-response,Longer,6007b9b68ffa26e0d13be3ad,e300ms_delay_2_52,5021,93,e_maintaskTrials_2_s,maintaskTrials,6fcb8,0,0,True,5,2,2,filled,Empty
291,5ff0a827571a1af480c17fdc,Empty_filled,0,6fcb8bf175bc448324a3fd4fcc45ad6b1b15c5057b95fb35abf45fb45208ab2e,2786,True,keypress,testresponse_s_F,508.0,['Shorter'],choice-response,Shorter,6007b9b68ffa26e0d13be3ad,e300ms_delay_2_91,4721,94,e_maintaskTrials_2_s,maintaskTrials,6fcb8,1,1,True,9,2,1,filled,Empty
292,5ff0a827571a1af480c17fdc,Empty_filled,0,6fcb8bf175bc448324a3fd4fcc45ad6b1b15c5057b95fb35abf45fb45208ab2e,2786,False,keypress,testresponse_s_F,161.0,['Shorter'],choice-response,Longer,6007b9b68ffa26e0d13be3ad,e300ms_delay_2_51,4495,95,e_maintaskTrials_2_s,maintaskTrials,6fcb8,0,0,True,5,2,1,filled,Empty
293,5ff0a827571a1af480c17fdc,Empty_filled,0,6fcb8bf175bc448324a3fd4fcc45ad6b1b15c5057b95fb35abf45fb45208ab2e,2786,True,keypress,testresponse_l_J,425.0,['Longer'],choice-response,Longer,6007b9b68ffa26e0d13be3ad,e300ms_delay_2_94,4685,96,e_maintaskTrials_2_l,maintaskTrials,6fcb8,1,0,True,9,2,4,filled,Empty
294,5ff0a827571a1af480c17fdc,Empty_filled,0,6fcb8bf175bc448324a3fd4fcc45ad6b1b15c5057b95fb35abf45fb45208ab2e,2786,True,keypress,testresponse_s_F,233.0,['Shorter'],choice-response,Shorter,6007b9b68ffa26e0d13be3ad,e300ms_delay_2_93,4465,97,e_maintaskTrials_2_s,maintaskTrials,6fcb8,1,1,True,9,2,3,filled,Empty
295,5ff0a827571a1af480c17fdc,Empty_filled,0,6fcb8bf175bc448324a3fd4fcc45ad6b1b15c5057b95fb35abf45fb45208ab2e,2786,True,keypress,testresponse_s_F,563.0,['Shorter'],choice-response,Shorter,6007b9b68ffa26e0d13be3ad,e300ms_delay_2_82,4661,98,e_maintaskTrials_2_s,maintaskTrials,6fcb8,1,1,True,8,2,2,filled,Empty
296,5ff0a827571a1af480c17fdc,Empty_filled,0,6fcb8bf175bc448324a3fd4fcc45ad6b1b15c5057b95fb35abf45fb45208ab2e,2786,False,keypress,testresponse_l_J,99.0,['Longer'],choice-response,Shorter,6007b9b68ffa26e0d13be3ad,e300ms_delay_2_85,4286,99,e_maintaskTrials_2_l,maintaskTrials,6fcb8,0,1,True,8,2,5,filled,Empty
297,5ff0a827571a1af480c17fdc,Empty_filled,0,6fcb8bf175bc448324a3fd4fcc45ad6b1b15c5057b95fb35abf45fb45208ab2e,2786,True,keypress,testresponse_s_F,232.0,['Shorter'],choice-response,Shorter,6007b9b68ffa26e0d13be3ad,e300ms_delay_2_53,4720,100,e_maintaskTrials_2_s,maintaskTrials,6fcb8,1,1,True,5,2,3,filled,Empty
298,5ff0a827571a1af480c17fdc,Empty_filled,0,6fcb8bf175bc448324a3fd4fcc45ad6b1b15c5057b95fb35abf45fb45208ab2e,2786,True,keypress,testresponse_l_J,3001.0,['Longer'],choice-response,Longer,6007b9b68ffa26e0d13be3ad,e300ms_delay_2_55,7077,101,e_maintaskTrials_2_l,maintaskTrials,6fcb8,1,0,True,5,2,5,filled,Empty
299,5ff0a827571a1af480c17fdc,Empty_filled,0,6fcb8bf175bc448324a3fd4fcc45ad6b1b15c5057b95fb35abf45fb45208ab2e,2786,True,keypress,testresponse_s_F,828.0,['Shorter'],choice-response,Shorter,6007b9b68ffa26e0d13be3ad,e300ms_delay_2_83,5525,102,e_maintaskTrials_2_s,maintaskTrials,6fcb8,1,1,True,8,2,3,filled,Empty
300,5ff0a827571a1af480c17fdc,Empty_filled,0,6fcb8bf175bc448324a3fd4fcc45ad6b1b15c5057b95fb35abf45fb45208ab2e,2786,True,keypress,testresponse_s_F,399.0,['Shorter'],choice-response,Shorter,6007b9b68ffa26e0d13be3ad,e300ms_delay_2_81,4504,103,e_maintaskTrials_2_s,maintaskTrials,6fcb8,1,1,True,8,2,1,filled,Empty
301,5ff0a827571a1af480c17fdc,Empty_filled,0,6fcb8bf175bc448324a3fd4fcc45ad6b1b15c5057b95fb35abf45fb45208ab2e,2786,True,keypress,testresponse_l_J,384.0,['Longer'],choice-response,Longer,6007b9b68ffa26e0d13be3ad,e300ms_delay_2_95,4687,104,e_maintaskTrials_2_l,maintaskTrials,6fcb8,1,0,True,9,2,5,filled,Empty
302,5ff0a827571a1af480c17fdc,Empty_filled,0,6fcb8bf175bc448324a3fd4fcc45ad6b1b15c5057b95fb35abf45fb45208ab2e,2786,True,keypress,testresponse_l_J,806.0,['Longer'],choice-response,Longer,6007b9b68ffa26e0d13be3ad,e300ms_delay_2_56,4915,105,e_maintaskTrials_2_l,maintaskTrials,6fcb8,1,0,True,5,2,6,filled,Empty
303,5ff0a827571a1af480c17fdc,Empty_filled,0,6fcb8bf175bc448324a3fd4fcc45ad6b1b15c5057b95fb35abf45fb45208ab2e,2786,False,keypress,testresponse_s_F,184.0,['Shorter'],choice-response,Longer,6007b9b68ffa26e0d13be3ad,e300ms_delay_2_92,4383,106,e_maintaskTrials_2_s,maintaskTrials,6fcb8,0,0,True,9,2,2,filled,Empty
304,5ff0a827571a1af480c17fdc,Empty_filled,0,6fcb8bf175bc448324a3fd4fcc45ad6b1b15c5057b95fb35abf45fb45208ab2e,2786,True,keypress,testresponse_l_J,141.0,['Longer'],choice-response,Longer,6007b9b68ffa26e0d13be3ad,e300ms_delay_2_84,4357,107,e_maintaskTrials_2_l,maintaskTrials,6fcb8,1,0,True,8,2,4,filled,Empty
305,5ff0a827571a1af480c17fdc,Empty_filled,0,6fcb8bf175bc448324a3fd4fcc45ad6b1b15c5057b95fb35abf45fb45208ab2e,2786,False,keypress,testresponse_l_J,1437.0,['Longer'],choice-response,Shorter,6007b9b68ffa26e0d13be3ad,e300ms_delay_2_86,5652,108,e_maintaskTrials_2_l,maintaskTrials,6fcb8,0,1,True,8,2,6,filled,Empty
306,5ff0a827571a1af480c17fdc,Empty_filled,0,6fcb8bf175bc448324a3fd4fcc45ad6b1b15c5057b95fb35abf45fb45208ab2e,2786,False,keypress,testresponse_s_F,489.0,['Shorter'],choice-response,Longer,6007b9b68ffa26e0d13be3ad,e300ms_delay_2_83,4681,109,e_maintaskTrials_2_s,maintaskTrials,6fcb8,0,0,True,8,2,3,filled,Empty
307,5ff0a827571a1af480c17fdc,Empty_filled,0,6fcb8bf175bc448324a3fd4fcc45ad6b1b15c5057b95fb35abf45fb45208ab2e,2786,False,keypress,testresponse_l_J,228.0,['Longer'],choice-response,Shorter,6007b9b68ffa26e0d13be3ad,e300ms_delay_2_96,4535,110,e_maintaskTrials_2_l,maintaskTrials,6fcb8,0,1,True,9,2,6,filled,Empty
308,5ff0a827571a1af480c17fdc,Empty_filled,0,6fcb8bf175bc448324a3fd4fcc45ad6b1b15c5057b95fb35abf45fb45208ab2e,2786,True,keypress,testresponse_s_F,71.0,['Shorter'],choice-response,Shorter,6007b9b68ffa26e0d13be3ad,e300ms_delay_2_91,4266,111,e_maintaskTrials_2_s,maintaskTrials,6fcb8,1,1,True,9,2,1,filled,Empty
309,5ff0a827571a1af480c17fdc,Empty_filled,0,6fcb8bf175bc448324a3fd4fcc45ad6b1b15c5057b95fb35abf45fb45208ab2e,2786,True,keypress,testresponse_s_F,1454.0,['Shorter'],choice-response,Shorter,6007b9b68ffa26e0d13be3ad,e300ms_delay_2_92,5648,112,e_maintaskTrials_2_s,maintaskTrials,6fcb8,1,1,True,9,2,2,filled,Empty
310,5ff0a827571a1af480c17fdc,Empty_filled,0,6fcb8bf175bc448324a3fd4fcc45ad6b1b15c5057b95fb35abf45fb45208ab2e,2786,False,keypress,testresponse_l_J,906.0,['Longer'],choice-response,Shorter,6007b9b68ffa26e0d13be3ad,e300ms_delay_2_95,5198,113,e_maintaskTrials_2_l,maintaskTrials,6fcb8,0,1,True,9,2,5,filled,Empty
311,5ff0a827571a1af480c17fdc,Empty_filled,0,6fcb8bf175bc448324a3fd4fcc45ad6b1b15c5057b95fb35abf45fb45208ab2e,2786,True,keypress,testresponse_l_J,1269.0,['Longer'],choice-response,Longer,6007b9b68ffa26e0d13be3ad,e300ms_delay_2_55,5343,114,e_maintaskTrials_2_l,maintaskTrials,6fcb8,1,0,True,5,2,5,filled,Empty
312,5ff0a827571a1af480c17fdc,Empty_filled,0,6fcb8bf175bc448324a3fd4fcc45ad6b1b15c5057b95fb35abf45fb45208ab2e,2786,True,keypress,testresponse_s_F,858.0,['Shorter'],choice-response,Shorter,6007b9b68ffa26e0d13be3ad,e300ms_delay_2_52,5408,115,e_maintaskTrials_2_s,maintaskTrials,6fcb8,1,1,True,5,2,2,filled,Empty
313,5ff0a827571a1af480c17fdc,Empty_filled,0,6fcb8bf175bc448324a3fd4fcc45ad6b1b15c5057b95fb35abf45fb45208ab2e,2786,False,keypress,testresponse_l_J,441.0,['Longer'],choice-response,Shorter,6007b9b68ffa26e0d13be3ad,e300ms_delay_2_85,4633,116,e_maintaskTrials_2_l,maintaskTrials,6fcb8,0,1,True,8,2,5,filled,Empty
314,5ff0a827571a1af480c17fdc,Empty_filled,0,6fcb8bf175bc448324a3fd4fcc45ad6b1b15c5057b95fb35abf45fb45208ab2e,2786,False,keypress,testresponse_l_J,210.0,['Longer'],choice-response,Shorter,6007b9b68ffa26e0d13be3ad,e300ms_delay_2_86,4425,117,e_maintaskTrials_2_l,maintaskTrials,6fcb8,0,1,True,8,2,6,filled,Empty
315,5ff0a827571a1af480c17fdc,Empty_filled,0,6fcb8bf175bc448324a3fd4fcc45ad6b1b15c5057b95fb35abf45fb45208ab2e,2786,True,keypress,testresponse_s_F,532.0,['Shorter'],choice-response,Shorter,6007b9b68ffa26e0d13be3ad,e300ms_delay_2_81,4653,118,e_maintaskTrials_2_s,maintaskTrials,6fcb8,1,1,True,8,2,1,filled,Empty
316,5ff0a827571a1af480c17fdc,Empty_filled,0,6fcb8bf175bc448324a3fd4fcc45ad6b1b15c5057b95fb35abf45fb45208ab2e,2786,False,keypress,testresponse_s_F,326.0,['Shorter'],choice-response,Longer,6007b9b68ffa26e0d13be3ad,e300ms_delay_2_51,4660,119,e_maintaskTrials_2_s,maintaskTrials,6fcb8,0,0,True,5,2,1,filled,Empty
317,5ff0a827571a1af480c17fdc,Empty_filled,0,6fcb8bf175bc448324a3fd4fcc45ad6b1b15c5057b95fb35abf45fb45208ab2e,2786,False,keypress,testresponse_l_J,301.0,['Longer'],choice-response,Shorter,6007b9b68ffa26e0d13be3ad,e300ms_delay_2_54,4862,120,e_maintaskTrials_2_l,maintaskTrials,6fcb8,0,1,True,5,2,4,filled,Empty
318,5ff0a827571a1af480c17fdc,Empty_filled,0,6fcb8bf175bc448324a3fd4fcc45ad6b1b15c5057b95fb35abf45fb45208ab2e,2786,True,keypress,testresponse_l_J,558.0,['Longer'],choice-response,Longer,6007b9b68ffa26e0d13be3ad,e300ms_delay_2_94,4915,121,e_maintaskTrials_2_l,maintaskTrials,6fcb8,1,0,True,9,2,4,filled,Empty
319,5ff0a827571a1af480c17fdc,Empty_filled,0,6fcb8bf175bc448324a3fd4fcc45ad6b1b15c5057b95fb35abf45fb45208ab2e,2786,True,keypress,testresponse_s_F,543.0,['Shorter'],choice-response,Shorter,6007b9b68ffa26e0d13be3ad,e300ms_delay_2_82,4663,122,e_maintaskTrials_2_s,maintaskTrials,6fcb8,1,1,True,8,2,2,filled,Empty
320,5ff0a827571a1af480c17fdc,Empty_filled,0,6fcb8bf175bc448324a3fd4fcc45ad6b1b15c5057b95fb35abf45fb45208ab2e,2786,False,keypress,testresponse_l_J,613.0,['Longer'],choice-response,Shorter,6007b9b68ffa26e0d13be3ad,e300ms_delay_2_56,4746,123,e_maintaskTrials_2_l,maintaskTrials,6fcb8,0,1,True,5,2,6,filled,Empty
321,5ff0a827571a1af480c17fdc,Empty_filled,0,6fcb8bf175bc448324a3fd4fcc45ad6b1b15c5057b95fb35abf45fb45208ab2e,2786,True,keypress,testresponse_s_F,504.0,['Shorter'],choice-response,Shorter,6007b9b68ffa26e0d13be3ad,e300ms_delay_2_93,4732,124,e_maintaskTrials_2_s,maintaskTrials,6fcb8,1,1,True,9,2,3,filled,Empty
322,5ff0a827571a1af480c17fdc,Empty_filled,0,6fcb8bf175bc448324a3fd4fcc45ad6b1b15c5057b95fb35abf45fb45208ab2e,2786,True,keypress,testresponse_s_F,360.0,['Shorter'],choice-response,Shorter,6007b9b68ffa26e0d13be3ad,e300ms_delay_2_53,4395,125,e_maintaskTrials_2_s,maintaskTrials,6fcb8,1,1,True,5,2,3,filled,Empty
