expt_id,group_id,network_error_repeat,participant_id,participation_duration,response_correct,response_mode,response_name,response_rt,response_target,response_type,response_value,session_id,stimuli_presented,trial_duration,trial_num,trial_template
5ff0a827571a1af480c17fdc,Empty_filled,0,d4e11846da3abca04d42bf37c13dc16cc049439ebe190eb850892c05b0f1bb69,3976,False,click,survey_noise,2610,[],choice-response,1,5ffcf97c73cd6e385a5fa726,logistics_noise,4040,1,logisticsQuestionnaire
5ff0a827571a1af480c17fdc,Empty_filled,0,d4e11846da3abca04d42bf37c13dc16cc049439ebe190eb850892c05b0f1bb69,3976,False,click,survey_headphone,8987,[],choice-response,Wired Earbuds,5ffcf97c73cd6e385a5fa726,logistic_headphone,126334,2,logisticsQuestionnaire
5ff0a827571a1af480c17fdc,Empty_filled,0,d4e11846da3abca04d42bf37c13dc16cc049439ebe190eb850892c05b0f1bb69,3976,True,keypress,exampleresponse_s_F,13743,['Shorter'],choice-response,Shorter,5ffcf97c73cd6e385a5fa726,e300ms_short,21352,3,e_example_s
5ff0a827571a1af480c17fdc,Empty_filled,0,d4e11846da3abca04d42bf37c13dc16cc049439ebe190eb850892c05b0f1bb69,3976,True,keypress,exampleresponse_l_J,4716,['Longer'],choice-response,Longer,5ffcf97c73cd6e385a5fa726,e300ms_long,11887,4,e_example_l
5ff0a827571a1af480c17fdc,Empty_filled,0,d4e11846da3abca04d42bf37c13dc16cc049439ebe190eb850892c05b0f1bb69,3976,True,keypress,exampleresponse_l_J,2063,['Longer'],choice-response,Longer,5ffcf97c73cd6e385a5fa726,e300ms_long,9578,5,e_example_l
5ff0a827571a1af480c17fdc,Empty_filled,0,d4e11846da3abca04d42bf37c13dc16cc049439ebe190eb850892c05b0f1bb69,3976,True,keypress,exampleresponse_s_F,720,['Shorter'],choice-response,Shorter,5ffcf97c73cd6e385a5fa726,e300ms_short,7503,6,e_example_s
5ff0a827571a1af480c17fdc,Empty_filled,0,d4e11846da3abca04d42bf37c13dc16cc049439ebe190eb850892c05b0f1bb69,3976,False,keypress,practiceresponse_s_F,4334,['Shorter'],choice-response,Longer,5ffcf97c73cd6e385a5fa726,e300ms_delay_2_81,12461,7,e_practiceTrials_s
5ff0a827571a1af480c17fdc,Empty_filled,0,d4e11846da3abca04d42bf37c13dc16cc049439ebe190eb850892c05b0f1bb69,3976,True,keypress,practiceresponse_l_J,558,['Longer'],choice-response,Longer,5ffcf97c73cd6e385a5fa726,e300ms_delay_2_86,7402,8,e_practiceTrials_l
5ff0a827571a1af480c17fdc,Empty_filled,0,d4e11846da3abca04d42bf37c13dc16cc049439ebe190eb850892c05b0f1bb69,3976,True,keypress,practiceresponse_s_F,967,['Shorter'],choice-response,Shorter,5ffcf97c73cd6e385a5fa726,e300ms_delay_2_81,7692,9,e_practiceTrials_s
5ff0a827571a1af480c17fdc,Empty_filled,0,d4e11846da3abca04d42bf37c13dc16cc049439ebe190eb850892c05b0f1bb69,3976,True,keypress,practiceresponse_l_J,718,['Longer'],choice-response,Longer,5ffcf97c73cd6e385a5fa726,e300ms_delay_2_86,8107,10,e_practiceTrials_l
5ff0a827571a1af480c17fdc,Empty_filled,0,d4e11846da3abca04d42bf37c13dc16cc049439ebe190eb850892c05b0f1bb69,3976,True,keypress,practiceresponse_l_J,1798,['Longer'],choice-response,Longer,5ffcf97c73cd6e385a5fa726,e300ms_delay_2_86,8737,11,e_practiceTrials_l
5ff0a827571a1af480c17fdc,Empty_filled,0,d4e11846da3abca04d42bf37c13dc16cc049439ebe190eb850892c05b0f1bb69,3976,True,keypress,practiceresponse_s_F,109,['Shorter'],choice-response,Shorter,5ffcf97c73cd6e385a5fa726,e300ms_delay_2_81,6865,12,e_practiceTrials_s
5ff0a827571a1af480c17fdc,Empty_filled,0,d4e11846da3abca04d42bf37c13dc16cc049439ebe190eb850892c05b0f1bb69,3976,False,keypress,practiceresponse_s_F,2133,['Shorter'],choice-response,Longer,5ffcf97c73cd6e385a5fa726,e300ms_delay_2_81,9192,13,e_practiceTrials_s
5ff0a827571a1af480c17fdc,Empty_filled,0,d4e11846da3abca04d42bf37c13dc16cc049439ebe190eb850892c05b0f1bb69,3976,True,keypress,practiceresponse_l_J,613,['Longer'],choice-response,Longer,5ffcf97c73cd6e385a5fa726,e300ms_delay_2_86,7456,14,e_practiceTrials_l
5ff0a827571a1af480c17fdc,Empty_filled,0,d4e11846da3abca04d42bf37c13dc16cc049439ebe190eb850892c05b0f1bb69,3976,True,keypress,practiceresponse_s_F,1310,['Shorter'],choice-response,Shorter,5ffcf97c73cd6e385a5fa726,e300ms_delay_2_81,8068,15,e_practiceTrials_s
5ff0a827571a1af480c17fdc,Empty_filled,0,d4e11846da3abca04d42bf37c13dc16cc049439ebe190eb850892c05b0f1bb69,3976,True,keypress,practiceresponse_l_J,870,['Longer'],choice-response,Longer,5ffcf97c73cd6e385a5fa726,e300ms_delay_2_86,7723,16,e_practiceTrials_l
5ff0a827571a1af480c17fdc,Empty_filled,0,d4e11846da3abca04d42bf37c13dc16cc049439ebe190eb850892c05b0f1bb69,3976,True,keypress,practiceresponse_s_F,411,['Shorter'],choice-response,Shorter,5ffcf97c73cd6e385a5fa726,e300ms_delay_2_81,7209,17,e_practiceTrials_s
5ff0a827571a1af480c17fdc,Empty_filled,0,d4e11846da3abca04d42bf37c13dc16cc049439ebe190eb850892c05b0f1bb69,3976,False,keypress,practiceresponse_l_J,3141,['Longer'],choice-response,Shorter,5ffcf97c73cd6e385a5fa726,e300ms_delay_2_86,9972,18,e_practiceTrials_l
5ff0a827571a1af480c17fdc,Empty_filled,0,d4e11846da3abca04d42bf37c13dc16cc049439ebe190eb850892c05b0f1bb69,3976,False,keypress,testresponse_s_F,2809,['Shorter'],choice-response,Longer,5ffcf97c73cd6e385a5fa726,e300ms_delay_2_91,8392,19,e_maintaskTrials_2_s
5ff0a827571a1af480c17fdc,Empty_filled,0,d4e11846da3abca04d42bf37c13dc16cc049439ebe190eb850892c05b0f1bb69,3976,True,keypress,testresponse_l_J,213,['Longer'],choice-response,Longer,5ffcf97c73cd6e385a5fa726,e300ms_delay_2_96,4503,20,e_maintaskTrials_2_l
5ff0a827571a1af480c17fdc,Empty_filled,0,d4e11846da3abca04d42bf37c13dc16cc049439ebe190eb850892c05b0f1bb69,3976,True,keypress,testresponse_s_F,600,['Shorter'],choice-response,Shorter,5ffcf97c73cd6e385a5fa726,e300ms_delay_2_82,5176,21,e_maintaskTrials_2_s
5ff0a827571a1af480c17fdc,Empty_filled,0,d4e11846da3abca04d42bf37c13dc16cc049439ebe190eb850892c05b0f1bb69,3976,False,keypress,testresponse_s_F,1352,['Shorter'],choice-response,Longer,5ffcf97c73cd6e385a5fa726,e300ms_delay_2_93,6029,22,e_maintaskTrials_2_s
5ff0a827571a1af480c17fdc,Empty_filled,0,d4e11846da3abca04d42bf37c13dc16cc049439ebe190eb850892c05b0f1bb69,3976,True,keypress,testresponse_l_J,3145,['Longer'],choice-response,Longer,5ffcf97c73cd6e385a5fa726,e300ms_delay_2_86,7367,23,e_maintaskTrials_2_l
5ff0a827571a1af480c17fdc,Empty_filled,0,d4e11846da3abca04d42bf37c13dc16cc049439ebe190eb850892c05b0f1bb69,3976,False,keypress,testresponse_l_J,1025,['Longer'],choice-response,Shorter,5ffcf97c73cd6e385a5fa726,e300ms_delay_2_56,5574,24,e_maintaskTrials_2_l
5ff0a827571a1af480c17fdc,Empty_filled,0,d4e11846da3abca04d42bf37c13dc16cc049439ebe190eb850892c05b0f1bb69,3976,False,keypress,testresponse_l_J,4409,['Longer'],choice-response,Shorter,5ffcf97c73cd6e385a5fa726,e300ms_delay_2_55,8702,25,e_maintaskTrials_2_l
5ff0a827571a1af480c17fdc,Empty_filled,0,d4e11846da3abca04d42bf37c13dc16cc049439ebe190eb850892c05b0f1bb69,3976,True,keypress,testresponse_s_F,206,['Shorter'],choice-response,Shorter,5ffcf97c73cd6e385a5fa726,e300ms_delay_2_52,4316,26,e_maintaskTrials_2_s
5ff0a827571a1af480c17fdc,Empty_filled,0,d4e11846da3abca04d42bf37c13dc16cc049439ebe190eb850892c05b0f1bb69,3976,True,keypress,testresponse_s_F,654,['Shorter'],choice-response,Shorter,5ffcf97c73cd6e385a5fa726,e300ms_delay_2_53,5150,27,e_maintaskTrials_2_s
5ff0a827571a1af480c17fdc,Empty_filled,0,d4e11846da3abca04d42bf37c13dc16cc049439ebe190eb850892c05b0f1bb69,3976,False,keypress,testresponse_l_J,1320,['Longer'],choice-response,Shorter,5ffcf97c73cd6e385a5fa726,e300ms_delay_2_95,5581,28,e_maintaskTrials_2_l
5ff0a827571a1af480c17fdc,Empty_filled,0,d4e11846da3abca04d42bf37c13dc16cc049439ebe190eb850892c05b0f1bb69,3976,True,keypress,testresponse_l_J,2031,['Longer'],choice-response,Longer,5ffcf97c73cd6e385a5fa726,e300ms_delay_2_94,6319,29,e_maintaskTrials_2_l
5ff0a827571a1af480c17fdc,Empty_filled,0,d4e11846da3abca04d42bf37c13dc16cc049439ebe190eb850892c05b0f1bb69,3976,False,keypress,testresponse_s_F,578,['Shorter'],choice-response,Longer,5ffcf97c73cd6e385a5fa726,e300ms_delay_2_92,4798,30,e_maintaskTrials_2_s
5ff0a827571a1af480c17fdc,Empty_filled,0,d4e11846da3abca04d42bf37c13dc16cc049439ebe190eb850892c05b0f1bb69,3976,False,keypress,testresponse_s_F,2798,['Shorter'],choice-response,Longer,5ffcf97c73cd6e385a5fa726,e300ms_delay_2_81,6909,31,e_maintaskTrials_2_s
5ff0a827571a1af480c17fdc,Empty_filled,0,d4e11846da3abca04d42bf37c13dc16cc049439ebe190eb850892c05b0f1bb69,3976,True,keypress,testresponse_l_J,1101,['Longer'],choice-response,Longer,5ffcf97c73cd6e385a5fa726,e300ms_delay_2_85,5325,32,e_maintaskTrials_2_l
5ff0a827571a1af480c17fdc,Empty_filled,0,d4e11846da3abca04d42bf37c13dc16cc049439ebe190eb850892c05b0f1bb69,3976,True,keypress,testresponse_s_F,376,['Shorter'],choice-response,Shorter,5ffcf97c73cd6e385a5fa726,e300ms_delay_2_51,4403,33,e_maintaskTrials_2_s
5ff0a827571a1af480c17fdc,Empty_filled,0,d4e11846da3abca04d42bf37c13dc16cc049439ebe190eb850892c05b0f1bb69,3976,True,keypress,testresponse_s_F,295,['Shorter'],choice-response,Shorter,5ffcf97c73cd6e385a5fa726,e300ms_delay_2_83,4430,34,e_maintaskTrials_2_s
5ff0a827571a1af480c17fdc,Empty_filled,0,d4e11846da3abca04d42bf37c13dc16cc049439ebe190eb850892c05b0f1bb69,3976,False,keypress,testresponse_l_J,114,['Longer'],choice-response,Shorter,5ffcf97c73cd6e385a5fa726,e300ms_delay_2_54,4210,35,e_maintaskTrials_2_l
5ff0a827571a1af480c17fdc,Empty_filled,0,d4e11846da3abca04d42bf37c13dc16cc049439ebe190eb850892c05b0f1bb69,3976,True,keypress,testresponse_l_J,198,['Longer'],choice-response,Longer,5ffcf97c73cd6e385a5fa726,e300ms_delay_2_84,4391,36,e_maintaskTrials_2_l
5ff0a827571a1af480c17fdc,Empty_filled,0,d4e11846da3abca04d42bf37c13dc16cc049439ebe190eb850892c05b0f1bb69,3976,True,keypress,testresponse_l_J,836,['Longer'],choice-response,Longer,5ffcf97c73cd6e385a5fa726,e300ms_delay_2_85,5018,37,e_maintaskTrials_2_l
5ff0a827571a1af480c17fdc,Empty_filled,0,d4e11846da3abca04d42bf37c13dc16cc049439ebe190eb850892c05b0f1bb69,3976,False,keypress,testresponse_l_J,109,['Longer'],choice-response,Shorter,5ffcf97c73cd6e385a5fa726,e300ms_delay_2_86,4342,38,e_maintaskTrials_2_l
5ff0a827571a1af480c17fdc,Empty_filled,0,d4e11846da3abca04d42bf37c13dc16cc049439ebe190eb850892c05b0f1bb69,3976,True,keypress,testresponse_s_F,1541,['Shorter'],choice-response,Shorter,5ffcf97c73cd6e385a5fa726,e300ms_delay_2_52,6063,39,e_maintaskTrials_2_s
5ff0a827571a1af480c17fdc,Empty_filled,0,d4e11846da3abca04d42bf37c13dc16cc049439ebe190eb850892c05b0f1bb69,3976,True,keypress,testresponse_l_J,682,['Longer'],choice-response,Longer,5ffcf97c73cd6e385a5fa726,e300ms_delay_2_54,4761,40,e_maintaskTrials_2_l
5ff0a827571a1af480c17fdc,Empty_filled,0,d4e11846da3abca04d42bf37c13dc16cc049439ebe190eb850892c05b0f1bb69,3976,True,keypress,testresponse_l_J,505,['Longer'],choice-response,Longer,5ffcf97c73cd6e385a5fa726,e300ms_delay_2_56,4657,41,e_maintaskTrials_2_l
5ff0a827571a1af480c17fdc,Empty_filled,0,d4e11846da3abca04d42bf37c13dc16cc049439ebe190eb850892c05b0f1bb69,3976,True,keypress,testresponse_l_J,1238,['Longer'],choice-response,Longer,5ffcf97c73cd6e385a5fa726,e300ms_delay_2_84,5411,42,e_maintaskTrials_2_l
5ff0a827571a1af480c17fdc,Empty_filled,0,d4e11846da3abca04d42bf37c13dc16cc049439ebe190eb850892c05b0f1bb69,3976,True,keypress,testresponse_s_F,382,['Shorter'],choice-response,Shorter,5ffcf97c73cd6e385a5fa726,e300ms_delay_2_51,4392,43,e_maintaskTrials_2_s
5ff0a827571a1af480c17fdc,Empty_filled,0,d4e11846da3abca04d42bf37c13dc16cc049439ebe190eb850892c05b0f1bb69,3976,False,keypress,testresponse_s_F,132,['Shorter'],choice-response,Longer,5ffcf97c73cd6e385a5fa726,e300ms_delay_2_93,4367,44,e_maintaskTrials_2_s
5ff0a827571a1af480c17fdc,Empty_filled,0,d4e11846da3abca04d42bf37c13dc16cc049439ebe190eb850892c05b0f1bb69,3976,True,keypress,testresponse_s_F,96,['Shorter'],choice-response,Shorter,5ffcf97c73cd6e385a5fa726,e300ms_delay_2_81,4219,45,e_maintaskTrials_2_s
5ff0a827571a1af480c17fdc,Empty_filled,0,d4e11846da3abca04d42bf37c13dc16cc049439ebe190eb850892c05b0f1bb69,3976,True,keypress,testresponse_l_J,92,['Longer'],choice-response,Longer,5ffcf97c73cd6e385a5fa726,e300ms_delay_2_95,4386,46,e_maintaskTrials_2_l
5ff0a827571a1af480c17fdc,Empty_filled,0,d4e11846da3abca04d42bf37c13dc16cc049439ebe190eb850892c05b0f1bb69,3976,False,keypress,testresponse_s_F,114,['Shorter'],choice-response,Longer,5ffcf97c73cd6e385a5fa726,e300ms_delay_2_82,4241,47,e_maintaskTrials_2_s
5ff0a827571a1af480c17fdc,Empty_filled,0,d4e11846da3abca04d42bf37c13dc16cc049439ebe190eb850892c05b0f1bb69,3976,False,keypress,testresponse_l_J,41,['Longer'],choice-response,Shorter,5ffcf97c73cd6e385a5fa726,e300ms_delay_2_55,4151,48,e_maintaskTrials_2_l
5ff0a827571a1af480c17fdc,Empty_filled,0,d4e11846da3abca04d42bf37c13dc16cc049439ebe190eb850892c05b0f1bb69,3976,False,keypress,testresponse_s_F,982,['Shorter'],choice-response,Longer,5ffcf97c73cd6e385a5fa726,e300ms_delay_2_83,5183,49,e_maintaskTrials_2_s
5ff0a827571a1af480c17fdc,Empty_filled,0,d4e11846da3abca04d42bf37c13dc16cc049439ebe190eb850892c05b0f1bb69,3976,True,keypress,testresponse_l_J,349,['Longer'],choice-response,Longer,5ffcf97c73cd6e385a5fa726,e300ms_delay_2_94,5117,50,e_maintaskTrials_2_l
5ff0a827571a1af480c17fdc,Empty_filled,0,d4e11846da3abca04d42bf37c13dc16cc049439ebe190eb850892c05b0f1bb69,3976,True,keypress,testresponse_l_J,335,['Longer'],choice-response,Longer,5ffcf97c73cd6e385a5fa726,e300ms_delay_2_96,4638,51,e_maintaskTrials_2_l
5ff0a827571a1af480c17fdc,Empty_filled,0,d4e11846da3abca04d42bf37c13dc16cc049439ebe190eb850892c05b0f1bb69,3976,True,keypress,testresponse_s_F,238,['Shorter'],choice-response,Shorter,5ffcf97c73cd6e385a5fa726,e300ms_delay_2_53,4294,52,e_maintaskTrials_2_s
5ff0a827571a1af480c17fdc,Empty_filled,0,d4e11846da3abca04d42bf37c13dc16cc049439ebe190eb850892c05b0f1bb69,3976,False,keypress,testresponse_s_F,204,['Shorter'],choice-response,Longer,5ffcf97c73cd6e385a5fa726,e300ms_delay_2_92,4436,53,e_maintaskTrials_2_s
5ff0a827571a1af480c17fdc,Empty_filled,0,d4e11846da3abca04d42bf37c13dc16cc049439ebe190eb850892c05b0f1bb69,3976,False,keypress,testresponse_s_F,206,['Shorter'],choice-response,Longer,5ffcf97c73cd6e385a5fa726,e300ms_delay_2_91,4445,54,e_maintaskTrials_2_s
5ff0a827571a1af480c17fdc,Empty_filled,0,d4e11846da3abca04d42bf37c13dc16cc049439ebe190eb850892c05b0f1bb69,3976,False,keypress,testresponse_s_F,147,['Shorter'],choice-response,Longer,5ffcf97c73cd6e385a5fa726,e300ms_delay_2_93,4411,55,e_maintaskTrials_2_s
5ff0a827571a1af480c17fdc,Empty_filled,0,d4e11846da3abca04d42bf37c13dc16cc049439ebe190eb850892c05b0f1bb69,3976,False,keypress,testresponse_s_F,279,['Shorter'],choice-response,Longer,5ffcf97c73cd6e385a5fa726,e300ms_delay_2_83,4404,56,e_maintaskTrials_2_s
5ff0a827571a1af480c17fdc,Empty_filled,0,d4e11846da3abca04d42bf37c13dc16cc049439ebe190eb850892c05b0f1bb69,3976,True,keypress,testresponse_l_J,837,['Longer'],choice-response,Longer,5ffcf97c73cd6e385a5fa726,e300ms_delay_2_94,5392,57,e_maintaskTrials_2_l
5ff0a827571a1af480c17fdc,Empty_filled,0,d4e11846da3abca04d42bf37c13dc16cc049439ebe190eb850892c05b0f1bb69,3976,True,keypress,testresponse_s_F,229,['Shorter'],choice-response,Shorter,5ffcf97c73cd6e385a5fa726,e300ms_delay_2_82,4346,58,e_maintaskTrials_2_s
5ff0a827571a1af480c17fdc,Empty_filled,0,d4e11846da3abca04d42bf37c13dc16cc049439ebe190eb850892c05b0f1bb69,3976,True,keypress,testresponse_s_F,602,['Shorter'],choice-response,Shorter,5ffcf97c73cd6e385a5fa726,e300ms_delay_2_51,4604,59,e_maintaskTrials_2_s
5ff0a827571a1af480c17fdc,Empty_filled,0,d4e11846da3abca04d42bf37c13dc16cc049439ebe190eb850892c05b0f1bb69,3976,False,keypress,testresponse_s_F,665,['Shorter'],choice-response,Longer,5ffcf97c73cd6e385a5fa726,e300ms_delay_2_53,4733,60,e_maintaskTrials_2_s
5ff0a827571a1af480c17fdc,Empty_filled,0,d4e11846da3abca04d42bf37c13dc16cc049439ebe190eb850892c05b0f1bb69,3976,True,keypress,testresponse_s_F,359,['Shorter'],choice-response,Shorter,5ffcf97c73cd6e385a5fa726,e300ms_delay_2_91,4584,61,e_maintaskTrials_2_s
5ff0a827571a1af480c17fdc,Empty_filled,0,d4e11846da3abca04d42bf37c13dc16cc049439ebe190eb850892c05b0f1bb69,3976,True,keypress,testresponse_l_J,270,['Longer'],choice-response,Longer,5ffcf97c73cd6e385a5fa726,e300ms_delay_2_86,4976,62,e_maintaskTrials_2_l
5ff0a827571a1af480c17fdc,Empty_filled,0,d4e11846da3abca04d42bf37c13dc16cc049439ebe190eb850892c05b0f1bb69,3976,True,keypress,testresponse_s_F,201,['Shorter'],choice-response,Shorter,5ffcf97c73cd6e385a5fa726,e300ms_delay_2_81,4328,63,e_maintaskTrials_2_s
5ff0a827571a1af480c17fdc,Empty_filled,0,d4e11846da3abca04d42bf37c13dc16cc049439ebe190eb850892c05b0f1bb69,3976,True,keypress,testresponse_s_F,1000,['Shorter'],choice-response,Shorter,5ffcf97c73cd6e385a5fa726,e300ms_delay_2_52,5081,64,e_maintaskTrials_2_s
5ff0a827571a1af480c17fdc,Empty_filled,0,d4e11846da3abca04d42bf37c13dc16cc049439ebe190eb850892c05b0f1bb69,3976,True,keypress,testresponse_l_J,261,['Longer'],choice-response,Longer,5ffcf97c73cd6e385a5fa726,e300ms_delay_2_55,4389,65,e_maintaskTrials_2_l
5ff0a827571a1af480c17fdc,Empty_filled,0,d4e11846da3abca04d42bf37c13dc16cc049439ebe190eb850892c05b0f1bb69,3976,True,keypress,testresponse_l_J,195,['Longer'],choice-response,Longer,5ffcf97c73cd6e385a5fa726,e300ms_delay_2_95,4445,66,e_maintaskTrials_2_l
5ff0a827571a1af480c17fdc,Empty_filled,0,d4e11846da3abca04d42bf37c13dc16cc049439ebe190eb850892c05b0f1bb69,3976,False,keypress,testresponse_l_J,1845,['Longer'],choice-response,Shorter,5ffcf97c73cd6e385a5fa726,e300ms_delay_2_85,6373,67,e_maintaskTrials_2_l
5ff0a827571a1af480c17fdc,Empty_filled,0,d4e11846da3abca04d42bf37c13dc16cc049439ebe190eb850892c05b0f1bb69,3976,True,keypress,testresponse_l_J,102,['Longer'],choice-response,Longer,5ffcf97c73cd6e385a5fa726,e300ms_delay_2_96,4411,68,e_maintaskTrials_2_l
5ff0a827571a1af480c17fdc,Empty_filled,0,d4e11846da3abca04d42bf37c13dc16cc049439ebe190eb850892c05b0f1bb69,3976,False,keypress,testresponse_s_F,309,['Shorter'],choice-response,Longer,5ffcf97c73cd6e385a5fa726,e300ms_delay_2_92,4516,69,e_maintaskTrials_2_s
5ff0a827571a1af480c17fdc,Empty_filled,0,d4e11846da3abca04d42bf37c13dc16cc049439ebe190eb850892c05b0f1bb69,3976,False,keypress,testresponse_l_J,244,['Longer'],choice-response,Shorter,5ffcf97c73cd6e385a5fa726,e300ms_delay_2_54,4337,70,e_maintaskTrials_2_l
5ff0a827571a1af480c17fdc,Empty_filled,0,d4e11846da3abca04d42bf37c13dc16cc049439ebe190eb850892c05b0f1bb69,3976,False,keypress,testresponse_l_J,276,['Longer'],choice-response,Shorter,5ffcf97c73cd6e385a5fa726,e300ms_delay_2_56,4399,71,e_maintaskTrials_2_l
5ff0a827571a1af480c17fdc,Empty_filled,0,d4e11846da3abca04d42bf37c13dc16cc049439ebe190eb850892c05b0f1bb69,3976,False,keypress,testresponse_l_J,695,['Longer'],choice-response,Shorter,5ffcf97c73cd6e385a5fa726,e300ms_delay_2_84,4845,72,e_maintaskTrials_2_l
5ff0a827571a1af480c17fdc,Empty_filled,0,d4e11846da3abca04d42bf37c13dc16cc049439ebe190eb850892c05b0f1bb69,3976,True,keypress,testresponse_s_F,257,['Shorter'],choice-response,Shorter,5ffcf97c73cd6e385a5fa726,e300ms_delay_2_81,4354,73,e_maintaskTrials_2_s
5ff0a827571a1af480c17fdc,Empty_filled,0,d4e11846da3abca04d42bf37c13dc16cc049439ebe190eb850892c05b0f1bb69,3976,False,keypress,testresponse_l_J,205,['Longer'],choice-response,Shorter,5ffcf97c73cd6e385a5fa726,e300ms_delay_2_55,4783,74,e_maintaskTrials_2_l
5ff0a827571a1af480c17fdc,Empty_filled,0,d4e11846da3abca04d42bf37c13dc16cc049439ebe190eb850892c05b0f1bb69,3976,True,keypress,testresponse_l_J,406,['Longer'],choice-response,Longer,5ffcf97c73cd6e385a5fa726,e300ms_delay_2_95,4682,75,e_maintaskTrials_2_l
5ff0a827571a1af480c17fdc,Empty_filled,0,d4e11846da3abca04d42bf37c13dc16cc049439ebe190eb850892c05b0f1bb69,3976,True,keypress,testresponse_s_F,241,['Shorter'],choice-response,Shorter,5ffcf97c73cd6e385a5fa726,e300ms_delay_2_53,4302,76,e_maintaskTrials_2_s
5ff0a827571a1af480c17fdc,Empty_filled,0,d4e11846da3abca04d42bf37c13dc16cc049439ebe190eb850892c05b0f1bb69,3976,False,keypress,testresponse_s_F,320,['Shorter'],choice-response,Longer,5ffcf97c73cd6e385a5fa726,e300ms_delay_2_52,4366,77,e_maintaskTrials_2_s
5ff0a827571a1af480c17fdc,Empty_filled,0,d4e11846da3abca04d42bf37c13dc16cc049439ebe190eb850892c05b0f1bb69,3976,True,keypress,testresponse_s_F,386,['Shorter'],choice-response,Shorter,5ffcf97c73cd6e385a5fa726,e300ms_delay_2_91,4636,78,e_maintaskTrials_2_s
5ff0a827571a1af480c17fdc,Empty_filled,0,d4e11846da3abca04d42bf37c13dc16cc049439ebe190eb850892c05b0f1bb69,3976,True,keypress,testresponse_s_F,144,['Shorter'],choice-response,Shorter,5ffcf97c73cd6e385a5fa726,e300ms_delay_2_51,4147,79,e_maintaskTrials_2_s
5ff0a827571a1af480c17fdc,Empty_filled,0,d4e11846da3abca04d42bf37c13dc16cc049439ebe190eb850892c05b0f1bb69,3976,True,keypress,testresponse_s_F,551,['Shorter'],choice-response,Shorter,5ffcf97c73cd6e385a5fa726,e300ms_delay_2_93,4838,80,e_maintaskTrials_2_s
5ff0a827571a1af480c17fdc,Empty_filled,0,d4e11846da3abca04d42bf37c13dc16cc049439ebe190eb850892c05b0f1bb69,3976,False,keypress,testresponse_l_J,190,['Longer'],choice-response,Shorter,5ffcf97c73cd6e385a5fa726,e300ms_delay_2_54,4272,81,e_maintaskTrials_2_l
5ff0a827571a1af480c17fdc,Empty_filled,0,d4e11846da3abca04d42bf37c13dc16cc049439ebe190eb850892c05b0f1bb69,3976,True,keypress,testresponse_l_J,212,['Longer'],choice-response,Longer,5ffcf97c73cd6e385a5fa726,e300ms_delay_2_94,4477,82,e_maintaskTrials_2_l
5ff0a827571a1af480c17fdc,Empty_filled,0,d4e11846da3abca04d42bf37c13dc16cc049439ebe190eb850892c05b0f1bb69,3976,False,keypress,testresponse_s_F,1551,['Shorter'],choice-response,Longer,5ffcf97c73cd6e385a5fa726,e300ms_delay_2_82,5726,83,e_maintaskTrials_2_s
5ff0a827571a1af480c17fdc,Empty_filled,0,d4e11846da3abca04d42bf37c13dc16cc049439ebe190eb850892c05b0f1bb69,3976,True,keypress,testresponse_l_J,2960,['Longer'],choice-response,Longer,5ffcf97c73cd6e385a5fa726,e300ms_delay_2_86,7153,84,e_maintaskTrials_2_l
5ff0a827571a1af480c17fdc,Empty_filled,0,d4e11846da3abca04d42bf37c13dc16cc049439ebe190eb850892c05b0f1bb69,3976,True,keypress,testresponse_l_J,343,['Longer'],choice-response,Longer,5ffcf97c73cd6e385a5fa726,e300ms_delay_2_85,4545,85,e_maintaskTrials_2_l
5ff0a827571a1af480c17fdc,Empty_filled,0,d4e11846da3abca04d42bf37c13dc16cc049439ebe190eb850892c05b0f1bb69,3976,True,keypress,testresponse_l_J,239,['Longer'],choice-response,Longer,5ffcf97c73cd6e385a5fa726,e300ms_delay_2_96,4504,86,e_maintaskTrials_2_l
5ff0a827571a1af480c17fdc,Empty_filled,0,d4e11846da3abca04d42bf37c13dc16cc049439ebe190eb850892c05b0f1bb69,3976,False,keypress,testresponse_l_J,111,['Longer'],choice-response,Shorter,5ffcf97c73cd6e385a5fa726,e300ms_delay_2_56,4272,87,e_maintaskTrials_2_l
5ff0a827571a1af480c17fdc,Empty_filled,0,d4e11846da3abca04d42bf37c13dc16cc049439ebe190eb850892c05b0f1bb69,3976,False,keypress,testresponse_s_F,245,['Shorter'],choice-response,Longer,5ffcf97c73cd6e385a5fa726,e300ms_delay_2_83,4406,88,e_maintaskTrials_2_s
5ff0a827571a1af480c17fdc,Empty_filled,0,d4e11846da3abca04d42bf37c13dc16cc049439ebe190eb850892c05b0f1bb69,3976,True,keypress,testresponse_l_J,191,['Longer'],choice-response,Longer,5ffcf97c73cd6e385a5fa726,e300ms_delay_2_84,4701,89,e_maintaskTrials_2_l
5ff0a827571a1af480c17fdc,Empty_filled,0,d4e11846da3abca04d42bf37c13dc16cc049439ebe190eb850892c05b0f1bb69,3976,False,keypress,testresponse_s_F,144,['Shorter'],choice-response,Longer,5ffcf97c73cd6e385a5fa726,e300ms_delay_2_92,4364,90,e_maintaskTrials_2_s
5ff0a827571a1af480c17fdc,Empty_filled,0,d4e11846da3abca04d42bf37c13dc16cc049439ebe190eb850892c05b0f1bb69,3976,False,keypress,testresponse_s_F,308,['Shorter'],choice-response,Longer,5ffcf97c73cd6e385a5fa726,e300ms_delay_2_83,4482,91,e_maintaskTrials_2_s
5ff0a827571a1af480c17fdc,Empty_filled,0,d4e11846da3abca04d42bf37c13dc16cc049439ebe190eb850892c05b0f1bb69,3976,False,keypress,testresponse_l_J,376,['Longer'],choice-response,Shorter,5ffcf97c73cd6e385a5fa726,e300ms_delay_2_54,4461,92,e_maintaskTrials_2_l
5ff0a827571a1af480c17fdc,Empty_filled,0,d4e11846da3abca04d42bf37c13dc16cc049439ebe190eb850892c05b0f1bb69,3976,True,keypress,testresponse_s_F,271,['Shorter'],choice-response,Shorter,5ffcf97c73cd6e385a5fa726,e300ms_delay_2_51,4283,93,e_maintaskTrials_2_s
5ff0a827571a1af480c17fdc,Empty_filled,0,d4e11846da3abca04d42bf37c13dc16cc049439ebe190eb850892c05b0f1bb69,3976,True,keypress,testresponse_l_J,117,['Longer'],choice-response,Longer,5ffcf97c73cd6e385a5fa726,e300ms_delay_2_95,4918,94,e_maintaskTrials_2_l
5ff0a827571a1af480c17fdc,Empty_filled,0,d4e11846da3abca04d42bf37c13dc16cc049439ebe190eb850892c05b0f1bb69,3976,False,keypress,testresponse_l_J,126,['Longer'],choice-response,Shorter,5ffcf97c73cd6e385a5fa726,e300ms_delay_2_56,4700,95,e_maintaskTrials_2_l
5ff0a827571a1af480c17fdc,Empty_filled,0,d4e11846da3abca04d42bf37c13dc16cc049439ebe190eb850892c05b0f1bb69,3976,True,keypress,testresponse_s_F,482,['Shorter'],choice-response,Shorter,5ffcf97c73cd6e385a5fa726,e300ms_delay_2_91,5152,96,e_maintaskTrials_2_s
5ff0a827571a1af480c17fdc,Empty_filled,0,d4e11846da3abca04d42bf37c13dc16cc049439ebe190eb850892c05b0f1bb69,3976,False,keypress,testresponse_s_F,290,['Shorter'],choice-response,Longer,5ffcf97c73cd6e385a5fa726,e300ms_delay_2_82,4424,97,e_maintaskTrials_2_s
5ff0a827571a1af480c17fdc,Empty_filled,0,d4e11846da3abca04d42bf37c13dc16cc049439ebe190eb850892c05b0f1bb69,3976,False,keypress,testresponse_s_F,316,['Shorter'],choice-response,Longer,5ffcf97c73cd6e385a5fa726,e300ms_delay_2_93,4537,98,e_maintaskTrials_2_s
5ff0a827571a1af480c17fdc,Empty_filled,0,d4e11846da3abca04d42bf37c13dc16cc049439ebe190eb850892c05b0f1bb69,3976,True,keypress,testresponse_l_J,3882,['Longer'],choice-response,Longer,5ffcf97c73cd6e385a5fa726,e300ms_delay_2_55,8416,99,e_maintaskTrials_2_l
5ff0a827571a1af480c17fdc,Empty_filled,0,d4e11846da3abca04d42bf37c13dc16cc049439ebe190eb850892c05b0f1bb69,3976,True,keypress,testresponse_l_J,341,['Longer'],choice-response,Longer,5ffcf97c73cd6e385a5fa726,e300ms_delay_2_96,4629,100,e_maintaskTrials_2_l
5ff0a827571a1af480c17fdc,Empty_filled,0,d4e11846da3abca04d42bf37c13dc16cc049439ebe190eb850892c05b0f1bb69,3976,True,keypress,testresponse_s_F,504,['Shorter'],choice-response,Shorter,5ffcf97c73cd6e385a5fa726,e300ms_delay_2_92,4736,101,e_maintaskTrials_2_s
5ff0a827571a1af480c17fdc,Empty_filled,0,d4e11846da3abca04d42bf37c13dc16cc049439ebe190eb850892c05b0f1bb69,3976,True,keypress,testresponse_s_F,294,['Shorter'],choice-response,Shorter,5ffcf97c73cd6e385a5fa726,e300ms_delay_2_52,4321,102,e_maintaskTrials_2_s
5ff0a827571a1af480c17fdc,Empty_filled,0,d4e11846da3abca04d42bf37c13dc16cc049439ebe190eb850892c05b0f1bb69,3976,True,keypress,testresponse_l_J,366,['Longer'],choice-response,Longer,5ffcf97c73cd6e385a5fa726,e300ms_delay_2_84,4549,103,e_maintaskTrials_2_l
5ff0a827571a1af480c17fdc,Empty_filled,0,d4e11846da3abca04d42bf37c13dc16cc049439ebe190eb850892c05b0f1bb69,3976,True,keypress,testresponse_s_F,191,['Shorter'],choice-response,Shorter,5ffcf97c73cd6e385a5fa726,e300ms_delay_2_81,4299,104,e_maintaskTrials_2_s
5ff0a827571a1af480c17fdc,Empty_filled,0,d4e11846da3abca04d42bf37c13dc16cc049439ebe190eb850892c05b0f1bb69,3976,True,keypress,testresponse_l_J,753,['Longer'],choice-response,Longer,5ffcf97c73cd6e385a5fa726,e300ms_delay_2_94,5021,105,e_maintaskTrials_2_l
5ff0a827571a1af480c17fdc,Empty_filled,0,d4e11846da3abca04d42bf37c13dc16cc049439ebe190eb850892c05b0f1bb69,3976,True,keypress,testresponse_s_F,615,['Shorter'],choice-response,Shorter,5ffcf97c73cd6e385a5fa726,e300ms_delay_2_53,4674,106,e_maintaskTrials_2_s
5ff0a827571a1af480c17fdc,Empty_filled,0,d4e11846da3abca04d42bf37c13dc16cc049439ebe190eb850892c05b0f1bb69,3976,True,keypress,testresponse_l_J,797,['Longer'],choice-response,Longer,5ffcf97c73cd6e385a5fa726,e300ms_delay_2_85,4969,107,e_maintaskTrials_2_l
5ff0a827571a1af480c17fdc,Empty_filled,0,d4e11846da3abca04d42bf37c13dc16cc049439ebe190eb850892c05b0f1bb69,3976,False,keypress,testresponse_l_J,403,['Longer'],choice-response,Shorter,5ffcf97c73cd6e385a5fa726,e300ms_delay_2_86,4631,108,e_maintaskTrials_2_l
5ff0a827571a1af480c17fdc,Empty_filled,0,d4e11846da3abca04d42bf37c13dc16cc049439ebe190eb850892c05b0f1bb69,3976,True,keypress,testresponse_s_F,263,['Shorter'],choice-response,Shorter,5ffcf97c73cd6e385a5fa726,e300ms_delay_2_81,4849,109,e_maintaskTrials_2_s
5ff0a827571a1af480c17fdc,Empty_filled,0,d4e11846da3abca04d42bf37c13dc16cc049439ebe190eb850892c05b0f1bb69,3976,True,keypress,testresponse_l_J,486,['Longer'],choice-response,Longer,5ffcf97c73cd6e385a5fa726,e300ms_delay_2_56,4659,110,e_maintaskTrials_2_l
5ff0a827571a1af480c17fdc,Empty_filled,0,d4e11846da3abca04d42bf37c13dc16cc049439ebe190eb850892c05b0f1bb69,3976,False,keypress,testresponse_s_F,428,['Shorter'],choice-response,Longer,5ffcf97c73cd6e385a5fa726,e300ms_delay_2_83,4594,111,e_maintaskTrials_2_s
5ff0a827571a1af480c17fdc,Empty_filled,0,d4e11846da3abca04d42bf37c13dc16cc049439ebe190eb850892c05b0f1bb69,3976,False,keypress,testresponse_s_F,293,['Shorter'],choice-response,Longer,5ffcf97c73cd6e385a5fa726,e300ms_delay_2_93,4530,112,e_maintaskTrials_2_s
5ff0a827571a1af480c17fdc,Empty_filled,0,d4e11846da3abca04d42bf37c13dc16cc049439ebe190eb850892c05b0f1bb69,3976,True,keypress,testresponse_l_J,99,['Longer'],choice-response,Longer,5ffcf97c73cd6e385a5fa726,e300ms_delay_2_84,4266,113,e_maintaskTrials_2_l
5ff0a827571a1af480c17fdc,Empty_filled,0,d4e11846da3abca04d42bf37c13dc16cc049439ebe190eb850892c05b0f1bb69,3976,False,keypress,testresponse_l_J,87,['Longer'],choice-response,Shorter,5ffcf97c73cd6e385a5fa726,e300ms_delay_2_55,4172,114,e_maintaskTrials_2_l
5ff0a827571a1af480c17fdc,Empty_filled,0,d4e11846da3abca04d42bf37c13dc16cc049439ebe190eb850892c05b0f1bb69,3976,False,keypress,testresponse_l_J,702,['Longer'],choice-response,Shorter,5ffcf97c73cd6e385a5fa726,e300ms_delay_2_95,5042,115,e_maintaskTrials_2_l
5ff0a827571a1af480c17fdc,Empty_filled,0,d4e11846da3abca04d42bf37c13dc16cc049439ebe190eb850892c05b0f1bb69,3976,False,keypress,testresponse_l_J,512,['Longer'],choice-response,Shorter,5ffcf97c73cd6e385a5fa726,e300ms_delay_2_94,4822,116,e_maintaskTrials_2_l
5ff0a827571a1af480c17fdc,Empty_filled,0,d4e11846da3abca04d42bf37c13dc16cc049439ebe190eb850892c05b0f1bb69,3976,True,keypress,testresponse_s_F,356,['Shorter'],choice-response,Shorter,5ffcf97c73cd6e385a5fa726,e300ms_delay_2_91,4545,117,e_maintaskTrials_2_s
5ff0a827571a1af480c17fdc,Empty_filled,0,d4e11846da3abca04d42bf37c13dc16cc049439ebe190eb850892c05b0f1bb69,3976,True,keypress,testresponse_s_F,123,['Shorter'],choice-response,Shorter,5ffcf97c73cd6e385a5fa726,e300ms_delay_2_51,4142,118,e_maintaskTrials_2_s
5ff0a827571a1af480c17fdc,Empty_filled,0,d4e11846da3abca04d42bf37c13dc16cc049439ebe190eb850892c05b0f1bb69,3976,False,keypress,testresponse_l_J,115,['Longer'],choice-response,Shorter,5ffcf97c73cd6e385a5fa726,e300ms_delay_2_54,4190,119,e_maintaskTrials_2_l
5ff0a827571a1af480c17fdc,Empty_filled,0,d4e11846da3abca04d42bf37c13dc16cc049439ebe190eb850892c05b0f1bb69,3976,True,keypress,testresponse_s_F,304,['Shorter'],choice-response,Shorter,5ffcf97c73cd6e385a5fa726,e300ms_delay_2_52,4350,120,e_maintaskTrials_2_s
5ff0a827571a1af480c17fdc,Empty_filled,0,d4e11846da3abca04d42bf37c13dc16cc049439ebe190eb850892c05b0f1bb69,3976,True,keypress,testresponse_s_F,121,['Shorter'],choice-response,Shorter,5ffcf97c73cd6e385a5fa726,e300ms_delay_2_53,4162,121,e_maintaskTrials_2_s
5ff0a827571a1af480c17fdc,Empty_filled,0,d4e11846da3abca04d42bf37c13dc16cc049439ebe190eb850892c05b0f1bb69,3976,True,keypress,testresponse_l_J,233,['Longer'],choice-response,Longer,5ffcf97c73cd6e385a5fa726,e300ms_delay_2_96,4545,122,e_maintaskTrials_2_l
5ff0a827571a1af480c17fdc,Empty_filled,0,d4e11846da3abca04d42bf37c13dc16cc049439ebe190eb850892c05b0f1bb69,3976,True,keypress,testresponse_l_J,179,['Longer'],choice-response,Longer,5ffcf97c73cd6e385a5fa726,e300ms_delay_2_86,4408,123,e_maintaskTrials_2_l
5ff0a827571a1af480c17fdc,Empty_filled,0,d4e11846da3abca04d42bf37c13dc16cc049439ebe190eb850892c05b0f1bb69,3976,False,keypress,testresponse_s_F,1025,['Shorter'],choice-response,Longer,5ffcf97c73cd6e385a5fa726,e300ms_delay_2_82,5477,124,e_maintaskTrials_2_s
5ff0a827571a1af480c17fdc,Empty_filled,0,d4e11846da3abca04d42bf37c13dc16cc049439ebe190eb850892c05b0f1bb69,3976,True,keypress,testresponse_s_F,543,['Shorter'],choice-response,Shorter,5ffcf97c73cd6e385a5fa726,e300ms_delay_2_92,4759,125,e_maintaskTrials_2_s
5ff0a827571a1af480c17fdc,Empty_filled,0,d4e11846da3abca04d42bf37c13dc16cc049439ebe190eb850892c05b0f1bb69,3976,True,keypress,testresponse_l_J,303,['Longer'],choice-response,Longer,5ffcf97c73cd6e385a5fa726,e300ms_delay_2_85,4502,126,e_maintaskTrials_2_l
5ff0a827571a1af480c17fdc,Empty_filled,0,d4e11846da3abca04d42bf37c13dc16cc049439ebe190eb850892c05b0f1bb69,3976,False,keypress,testresponse_s_F,294,['Shorter'],choice-response,Longer,5ffcf97c73cd6e385a5fa726,e300ms_delay_2_82,5685,127,e_maintaskTrials_2_s
5ff0a827571a1af480c17fdc,Empty_filled,0,d4e11846da3abca04d42bf37c13dc16cc049439ebe190eb850892c05b0f1bb69,3976,False,keypress,testresponse_l_J,1769,['Longer'],choice-response,Shorter,5ffcf97c73cd6e385a5fa726,e300ms_delay_2_54,6323,128,e_maintaskTrials_2_l
5ff0a827571a1af480c17fdc,Empty_filled,0,d4e11846da3abca04d42bf37c13dc16cc049439ebe190eb850892c05b0f1bb69,3976,False,keypress,testresponse_s_F,829,['Shorter'],choice-response,Longer,5ffcf97c73cd6e385a5fa726,e300ms_delay_2_83,5028,129,e_maintaskTrials_2_s
5ff0a827571a1af480c17fdc,Empty_filled,0,d4e11846da3abca04d42bf37c13dc16cc049439ebe190eb850892c05b0f1bb69,3976,True,keypress,testresponse_s_F,124,['Shorter'],choice-response,Shorter,5ffcf97c73cd6e385a5fa726,e300ms_delay_2_52,4621,130,e_maintaskTrials_2_s
5ff0a827571a1af480c17fdc,Empty_filled,0,d4e11846da3abca04d42bf37c13dc16cc049439ebe190eb850892c05b0f1bb69,3976,False,keypress,testresponse_s_F,172,['Shorter'],choice-response,Longer,5ffcf97c73cd6e385a5fa726,e300ms_delay_2_93,4873,131,e_maintaskTrials_2_s
5ff0a827571a1af480c17fdc,Empty_filled,0,d4e11846da3abca04d42bf37c13dc16cc049439ebe190eb850892c05b0f1bb69,3976,True,keypress,testresponse_s_F,25,['Shorter'],choice-response,Shorter,5ffcf97c73cd6e385a5fa726,e300ms_delay_2_51,4022,132,e_maintaskTrials_2_s
5ff0a827571a1af480c17fdc,Empty_filled,0,d4e11846da3abca04d42bf37c13dc16cc049439ebe190eb850892c05b0f1bb69,3976,True,keypress,testresponse_s_F,655,['Shorter'],choice-response,Shorter,5ffcf97c73cd6e385a5fa726,e300ms_delay_2_91,5338,133,e_maintaskTrials_2_s
5ff0a827571a1af480c17fdc,Empty_filled,0,d4e11846da3abca04d42bf37c13dc16cc049439ebe190eb850892c05b0f1bb69,3976,True,keypress,testresponse_l_J,430,['Longer'],choice-response,Longer,5ffcf97c73cd6e385a5fa726,e300ms_delay_2_94,4795,134,e_maintaskTrials_2_l
5ff0a827571a1af480c17fdc,Empty_filled,0,d4e11846da3abca04d42bf37c13dc16cc049439ebe190eb850892c05b0f1bb69,3976,True,keypress,testresponse_l_J,630,['Longer'],choice-response,Longer,5ffcf97c73cd6e385a5fa726,e300ms_delay_2_85,4823,135,e_maintaskTrials_2_l
5ff0a827571a1af480c17fdc,Empty_filled,0,d4e11846da3abca04d42bf37c13dc16cc049439ebe190eb850892c05b0f1bb69,3976,True,keypress,testresponse_l_J,1885,['Longer'],choice-response,Longer,5ffcf97c73cd6e385a5fa726,e300ms_delay_2_86,6093,136,e_maintaskTrials_2_l
5ff0a827571a1af480c17fdc,Empty_filled,0,d4e11846da3abca04d42bf37c13dc16cc049439ebe190eb850892c05b0f1bb69,3976,True,keypress,testresponse_s_F,294,['Shorter'],choice-response,Shorter,5ffcf97c73cd6e385a5fa726,e300ms_delay_2_92,4560,137,e_maintaskTrials_2_s
5ff0a827571a1af480c17fdc,Empty_filled,0,d4e11846da3abca04d42bf37c13dc16cc049439ebe190eb850892c05b0f1bb69,3976,True,keypress,testresponse_l_J,446,['Longer'],choice-response,Longer,5ffcf97c73cd6e385a5fa726,e300ms_delay_2_84,4591,138,e_maintaskTrials_2_l
5ff0a827571a1af480c17fdc,Empty_filled,0,d4e11846da3abca04d42bf37c13dc16cc049439ebe190eb850892c05b0f1bb69,3976,True,keypress,testresponse_s_F,115,['Shorter'],choice-response,Shorter,5ffcf97c73cd6e385a5fa726,e300ms_delay_2_81,4245,139,e_maintaskTrials_2_s
5ff0a827571a1af480c17fdc,Empty_filled,0,d4e11846da3abca04d42bf37c13dc16cc049439ebe190eb850892c05b0f1bb69,3976,True,keypress,testresponse_l_J,173,['Longer'],choice-response,Longer,5ffcf97c73cd6e385a5fa726,e300ms_delay_2_95,4443,140,e_maintaskTrials_2_l
5ff0a827571a1af480c17fdc,Empty_filled,0,d4e11846da3abca04d42bf37c13dc16cc049439ebe190eb850892c05b0f1bb69,3976,False,keypress,testresponse_l_J,362,['Longer'],choice-response,Shorter,5ffcf97c73cd6e385a5fa726,e300ms_delay_2_56,4486,141,e_maintaskTrials_2_l
5ff0a827571a1af480c17fdc,Empty_filled,0,d4e11846da3abca04d42bf37c13dc16cc049439ebe190eb850892c05b0f1bb69,3976,True,keypress,testresponse_l_J,378,['Longer'],choice-response,Longer,5ffcf97c73cd6e385a5fa726,e300ms_delay_2_96,4649,142,e_maintaskTrials_2_l
5ff0a827571a1af480c17fdc,Empty_filled,0,d4e11846da3abca04d42bf37c13dc16cc049439ebe190eb850892c05b0f1bb69,3976,False,keypress,testresponse_l_J,208,['Longer'],choice-response,Shorter,5ffcf97c73cd6e385a5fa726,e300ms_delay_2_55,4370,143,e_maintaskTrials_2_l
5ff0a827571a1af480c17fdc,Empty_filled,0,d4e11846da3abca04d42bf37c13dc16cc049439ebe190eb850892c05b0f1bb69,3976,True,keypress,testresponse_s_F,581,['Shorter'],choice-response,Shorter,5ffcf97c73cd6e385a5fa726,e300ms_delay_2_53,4650,144,e_maintaskTrials_2_s
5ff0a827571a1af480c17fdc,Empty_filled,0,d4e11846da3abca04d42bf37c13dc16cc049439ebe190eb850892c05b0f1bb69,3976,True,keypress,testresponse_l_J,128,['Longer'],choice-response,Longer,5ffcf97c73cd6e385a5fa726,e300ms_delay_2_84,4583,145,e_maintaskTrials_2_l
5ff0a827571a1af480c17fdc,Empty_filled,0,d4e11846da3abca04d42bf37c13dc16cc049439ebe190eb850892c05b0f1bb69,3976,False,keypress,testresponse_s_F,190,['Shorter'],choice-response,Longer,5ffcf97c73cd6e385a5fa726,e300ms_delay_2_83,4383,146,e_maintaskTrials_2_s
5ff0a827571a1af480c17fdc,Empty_filled,0,d4e11846da3abca04d42bf37c13dc16cc049439ebe190eb850892c05b0f1bb69,3976,True,keypress,testresponse_l_J,404,['Longer'],choice-response,Longer,5ffcf97c73cd6e385a5fa726,e300ms_delay_2_94,4690,147,e_maintaskTrials_2_l
5ff0a827571a1af480c17fdc,Empty_filled,0,d4e11846da3abca04d42bf37c13dc16cc049439ebe190eb850892c05b0f1bb69,3976,True,keypress,testresponse_l_J,339,['Longer'],choice-response,Longer,5ffcf97c73cd6e385a5fa726,e300ms_delay_2_85,4526,148,e_maintaskTrials_2_l
5ff0a827571a1af480c17fdc,Empty_filled,0,d4e11846da3abca04d42bf37c13dc16cc049439ebe190eb850892c05b0f1bb69,3976,False,keypress,testresponse_l_J,120,['Longer'],choice-response,Shorter,5ffcf97c73cd6e385a5fa726,e300ms_delay_2_54,4193,149,e_maintaskTrials_2_l
5ff0a827571a1af480c17fdc,Empty_filled,0,d4e11846da3abca04d42bf37c13dc16cc049439ebe190eb850892c05b0f1bb69,3976,False,keypress,testresponse_s_F,327,['Shorter'],choice-response,Longer,5ffcf97c73cd6e385a5fa726,e300ms_delay_2_92,5028,150,e_maintaskTrials_2_s
5ff0a827571a1af480c17fdc,Empty_filled,0,d4e11846da3abca04d42bf37c13dc16cc049439ebe190eb850892c05b0f1bb69,3976,True,keypress,testresponse_s_F,413,['Shorter'],choice-response,Shorter,5ffcf97c73cd6e385a5fa726,e300ms_delay_2_52,4455,151,e_maintaskTrials_2_s
5ff0a827571a1af480c17fdc,Empty_filled,0,d4e11846da3abca04d42bf37c13dc16cc049439ebe190eb850892c05b0f1bb69,3976,True,keypress,testresponse_l_J,162,['Longer'],choice-response,Longer,5ffcf97c73cd6e385a5fa726,e300ms_delay_2_56,4280,152,e_maintaskTrials_2_l
5ff0a827571a1af480c17fdc,Empty_filled,0,d4e11846da3abca04d42bf37c13dc16cc049439ebe190eb850892c05b0f1bb69,3976,True,keypress,testresponse_l_J,183,['Longer'],choice-response,Longer,5ffcf97c73cd6e385a5fa726,e300ms_delay_2_96,4473,153,e_maintaskTrials_2_l
5ff0a827571a1af480c17fdc,Empty_filled,0,d4e11846da3abca04d42bf37c13dc16cc049439ebe190eb850892c05b0f1bb69,3976,True,keypress,testresponse_s_F,204,['Shorter'],choice-response,Shorter,5ffcf97c73cd6e385a5fa726,e300ms_delay_2_51,4197,154,e_maintaskTrials_2_s
5ff0a827571a1af480c17fdc,Empty_filled,0,d4e11846da3abca04d42bf37c13dc16cc049439ebe190eb850892c05b0f1bb69,3976,True,keypress,testresponse_l_J,53,['Longer'],choice-response,Longer,5ffcf97c73cd6e385a5fa726,e300ms_delay_2_86,4257,155,e_maintaskTrials_2_l
5ff0a827571a1af480c17fdc,Empty_filled,0,d4e11846da3abca04d42bf37c13dc16cc049439ebe190eb850892c05b0f1bb69,3976,False,keypress,testresponse_s_F,104,['Shorter'],choice-response,Longer,5ffcf97c73cd6e385a5fa726,e300ms_delay_2_93,4359,156,e_maintaskTrials_2_s
5ff0a827571a1af480c17fdc,Empty_filled,0,d4e11846da3abca04d42bf37c13dc16cc049439ebe190eb850892c05b0f1bb69,3976,False,keypress,testresponse_s_F,1117,['Shorter'],choice-response,Longer,5ffcf97c73cd6e385a5fa726,e300ms_delay_2_81,5235,157,e_maintaskTrials_2_s
5ff0a827571a1af480c17fdc,Empty_filled,0,d4e11846da3abca04d42bf37c13dc16cc049439ebe190eb850892c05b0f1bb69,3976,True,keypress,testresponse_l_J,260,['Longer'],choice-response,Longer,5ffcf97c73cd6e385a5fa726,e300ms_delay_2_55,4372,158,e_maintaskTrials_2_l
5ff0a827571a1af480c17fdc,Empty_filled,0,d4e11846da3abca04d42bf37c13dc16cc049439ebe190eb850892c05b0f1bb69,3976,False,keypress,testresponse_s_F,333,['Shorter'],choice-response,Longer,5ffcf97c73cd6e385a5fa726,e300ms_delay_2_91,4538,159,e_maintaskTrials_2_s
5ff0a827571a1af480c17fdc,Empty_filled,0,d4e11846da3abca04d42bf37c13dc16cc049439ebe190eb850892c05b0f1bb69,3976,False,keypress,testresponse_s_F,307,['Shorter'],choice-response,Longer,5ffcf97c73cd6e385a5fa726,e300ms_delay_2_82,4597,160,e_maintaskTrials_2_s
5ff0a827571a1af480c17fdc,Empty_filled,0,d4e11846da3abca04d42bf37c13dc16cc049439ebe190eb850892c05b0f1bb69,3976,True,keypress,testresponse_s_F,503,['Shorter'],choice-response,Shorter,5ffcf97c73cd6e385a5fa726,e300ms_delay_2_53,4589,161,e_maintaskTrials_2_s
5ff0a827571a1af480c17fdc,Empty_filled,0,d4e11846da3abca04d42bf37c13dc16cc049439ebe190eb850892c05b0f1bb69,3976,True,keypress,testresponse_l_J,235,['Longer'],choice-response,Longer,5ffcf97c73cd6e385a5fa726,e300ms_delay_2_95,4547,162,e_maintaskTrials_2_l
5ff0a827571a1af480c17fdc,Empty_filled,0,d4e11846da3abca04d42bf37c13dc16cc049439ebe190eb850892c05b0f1bb69,3976,True,keypress,testresponse_l_J,1098,['Longer'],choice-response,Longer,5ffcf97c73cd6e385a5fa726,e300ms_delay_2_96,5414,163,e_maintaskTrials_2_l
5ff0a827571a1af480c17fdc,Empty_filled,0,d4e11846da3abca04d42bf37c13dc16cc049439ebe190eb850892c05b0f1bb69,3976,False,keypress,testresponse_l_J,492,['Longer'],choice-response,Shorter,5ffcf97c73cd6e385a5fa726,e300ms_delay_2_56,4827,164,e_maintaskTrials_2_l
5ff0a827571a1af480c17fdc,Empty_filled,0,d4e11846da3abca04d42bf37c13dc16cc049439ebe190eb850892c05b0f1bb69,3976,True,keypress,testresponse_s_F,1535,['Shorter'],choice-response,Shorter,5ffcf97c73cd6e385a5fa726,e300ms_delay_2_92,6060,165,e_maintaskTrials_2_s
5ff0a827571a1af480c17fdc,Empty_filled,0,d4e11846da3abca04d42bf37c13dc16cc049439ebe190eb850892c05b0f1bb69,3976,True,keypress,testresponse_s_F,59,['Shorter'],choice-response,Shorter,5ffcf97c73cd6e385a5fa726,e300ms_delay_2_52,4129,166,e_maintaskTrials_2_s
5ff0a827571a1af480c17fdc,Empty_filled,0,d4e11846da3abca04d42bf37c13dc16cc049439ebe190eb850892c05b0f1bb69,3976,True,keypress,testresponse_s_F,140,['Shorter'],choice-response,Shorter,5ffcf97c73cd6e385a5fa726,e300ms_delay_2_81,4253,167,e_maintaskTrials_2_s
5ff0a827571a1af480c17fdc,Empty_filled,0,d4e11846da3abca04d42bf37c13dc16cc049439ebe190eb850892c05b0f1bb69,3976,True,keypress,testresponse_l_J,441,['Longer'],choice-response,Longer,5ffcf97c73cd6e385a5fa726,e300ms_delay_2_55,5025,168,e_maintaskTrials_2_l
5ff0a827571a1af480c17fdc,Empty_filled,0,d4e11846da3abca04d42bf37c13dc16cc049439ebe190eb850892c05b0f1bb69,3976,True,keypress,testresponse_l_J,1320,['Longer'],choice-response,Longer,5ffcf97c73cd6e385a5fa726,e300ms_delay_2_54,5894,169,e_maintaskTrials_2_l
5ff0a827571a1af480c17fdc,Empty_filled,0,d4e11846da3abca04d42bf37c13dc16cc049439ebe190eb850892c05b0f1bb69,3976,True,keypress,testresponse_l_J,999,['Longer'],choice-response,Longer,5ffcf97c73cd6e385a5fa726,e300ms_delay_2_85,5213,170,e_maintaskTrials_2_l
5ff0a827571a1af480c17fdc,Empty_filled,0,d4e11846da3abca04d42bf37c13dc16cc049439ebe190eb850892c05b0f1bb69,3976,True,keypress,testresponse_l_J,615,['Longer'],choice-response,Longer,5ffcf97c73cd6e385a5fa726,e300ms_delay_2_86,4845,171,e_maintaskTrials_2_l
5ff0a827571a1af480c17fdc,Empty_filled,0,d4e11846da3abca04d42bf37c13dc16cc049439ebe190eb850892c05b0f1bb69,3976,False,keypress,testresponse_s_F,1086,['Shorter'],choice-response,Longer,5ffcf97c73cd6e385a5fa726,e300ms_delay_2_91,5353,172,e_maintaskTrials_2_s
5ff0a827571a1af480c17fdc,Empty_filled,0,d4e11846da3abca04d42bf37c13dc16cc049439ebe190eb850892c05b0f1bb69,3976,False,keypress,testresponse_s_F,493,['Shorter'],choice-response,Longer,5ffcf97c73cd6e385a5fa726,e300ms_delay_2_93,4741,173,e_maintaskTrials_2_s
5ff0a827571a1af480c17fdc,Empty_filled,0,d4e11846da3abca04d42bf37c13dc16cc049439ebe190eb850892c05b0f1bb69,3976,False,keypress,testresponse_s_F,273,['Shorter'],choice-response,Longer,5ffcf97c73cd6e385a5fa726,e300ms_delay_2_83,4425,174,e_maintaskTrials_2_s
5ff0a827571a1af480c17fdc,Empty_filled,0,d4e11846da3abca04d42bf37c13dc16cc049439ebe190eb850892c05b0f1bb69,3976,True,keypress,testresponse_l_J,260,['Longer'],choice-response,Longer,5ffcf97c73cd6e385a5fa726,e300ms_delay_2_84,4434,175,e_maintaskTrials_2_l
5ff0a827571a1af480c17fdc,Empty_filled,0,d4e11846da3abca04d42bf37c13dc16cc049439ebe190eb850892c05b0f1bb69,3976,True,keypress,testresponse_s_F,1796,['Shorter'],choice-response,Shorter,5ffcf97c73cd6e385a5fa726,e300ms_delay_2_51,5825,176,e_maintaskTrials_2_s
5ff0a827571a1af480c17fdc,Empty_filled,0,d4e11846da3abca04d42bf37c13dc16cc049439ebe190eb850892c05b0f1bb69,3976,False,keypress,testresponse_s_F,1186,['Shorter'],choice-response,Longer,5ffcf97c73cd6e385a5fa726,e300ms_delay_2_82,5296,177,e_maintaskTrials_2_s
5ff0a827571a1af480c17fdc,Empty_filled,0,d4e11846da3abca04d42bf37c13dc16cc049439ebe190eb850892c05b0f1bb69,3976,True,keypress,testresponse_l_J,160,['Longer'],choice-response,Longer,5ffcf97c73cd6e385a5fa726,e300ms_delay_2_94,4437,178,e_maintaskTrials_2_l
5ff0a827571a1af480c17fdc,Empty_filled,0,d4e11846da3abca04d42bf37c13dc16cc049439ebe190eb850892c05b0f1bb69,3976,True,keypress,testresponse_s_F,579,['Shorter'],choice-response,Shorter,5ffcf97c73cd6e385a5fa726,e300ms_delay_2_53,4643,179,e_maintaskTrials_2_s
5ff0a827571a1af480c17fdc,Empty_filled,0,d4e11846da3abca04d42bf37c13dc16cc049439ebe190eb850892c05b0f1bb69,3976,True,keypress,testresponse_l_J,315,['Longer'],choice-response,Longer,5ffcf97c73cd6e385a5fa726,e300ms_delay_2_95,4566,180,e_maintaskTrials_2_l
5ff0a827571a1af480c17fdc,Empty_filled,0,d4e11846da3abca04d42bf37c13dc16cc049439ebe190eb850892c05b0f1bb69,3976,True,keypress,testresponse_l_J,305,['Longer'],choice-response,Longer,5ffcf97c73cd6e385a5fa726,e300ms_delay_2_95,5170,181,e_maintaskTrials_2_l
5ff0a827571a1af480c17fdc,Empty_filled,0,d4e11846da3abca04d42bf37c13dc16cc049439ebe190eb850892c05b0f1bb69,3976,True,keypress,testresponse_s_F,106,['Shorter'],choice-response,Shorter,5ffcf97c73cd6e385a5fa726,e300ms_delay_2_53,4190,182,e_maintaskTrials_2_s
5ff0a827571a1af480c17fdc,Empty_filled,0,d4e11846da3abca04d42bf37c13dc16cc049439ebe190eb850892c05b0f1bb69,3976,True,keypress,testresponse_s_F,47,['Shorter'],choice-response,Shorter,5ffcf97c73cd6e385a5fa726,e300ms_delay_2_83,4187,183,e_maintaskTrials_2_s
5ff0a827571a1af480c17fdc,Empty_filled,0,d4e11846da3abca04d42bf37c13dc16cc049439ebe190eb850892c05b0f1bb69,3976,True,keypress,testresponse_l_J,398,['Longer'],choice-response,Longer,5ffcf97c73cd6e385a5fa726,e300ms_delay_2_86,4607,184,e_maintaskTrials_2_l
5ff0a827571a1af480c17fdc,Empty_filled,0,d4e11846da3abca04d42bf37c13dc16cc049439ebe190eb850892c05b0f1bb69,3976,True,keypress,testresponse_l_J,313,['Longer'],choice-response,Longer,5ffcf97c73cd6e385a5fa726,e300ms_delay_2_96,4599,185,e_maintaskTrials_2_l
5ff0a827571a1af480c17fdc,Empty_filled,0,d4e11846da3abca04d42bf37c13dc16cc049439ebe190eb850892c05b0f1bb69,3976,True,keypress,testresponse_s_F,158,['Shorter'],choice-response,Shorter,5ffcf97c73cd6e385a5fa726,e300ms_delay_2_52,4259,186,e_maintaskTrials_2_s
5ff0a827571a1af480c17fdc,Empty_filled,0,d4e11846da3abca04d42bf37c13dc16cc049439ebe190eb850892c05b0f1bb69,3976,True,keypress,testresponse_s_F,153,['Shorter'],choice-response,Shorter,5ffcf97c73cd6e385a5fa726,e300ms_delay_2_51,4380,187,e_maintaskTrials_2_s
5ff0a827571a1af480c17fdc,Empty_filled,0,d4e11846da3abca04d42bf37c13dc16cc049439ebe190eb850892c05b0f1bb69,3976,False,keypress,testresponse_s_F,108,['Shorter'],choice-response,Longer,5ffcf97c73cd6e385a5fa726,e300ms_delay_2_91,4349,188,e_maintaskTrials_2_s
5ff0a827571a1af480c17fdc,Empty_filled,0,d4e11846da3abca04d42bf37c13dc16cc049439ebe190eb850892c05b0f1bb69,3976,True,keypress,testresponse_l_J,177,['Longer'],choice-response,Longer,5ffcf97c73cd6e385a5fa726,e300ms_delay_2_85,4366,189,e_maintaskTrials_2_l
5ff0a827571a1af480c17fdc,Empty_filled,0,d4e11846da3abca04d42bf37c13dc16cc049439ebe190eb850892c05b0f1bb69,3976,True,keypress,testresponse_s_F,270,['Shorter'],choice-response,Shorter,5ffcf97c73cd6e385a5fa726,e300ms_delay_2_92,4475,190,e_maintaskTrials_2_s
5ff0a827571a1af480c17fdc,Empty_filled,0,d4e11846da3abca04d42bf37c13dc16cc049439ebe190eb850892c05b0f1bb69,3976,True,keypress,testresponse_l_J,891,['Longer'],choice-response,Longer,5ffcf97c73cd6e385a5fa726,e300ms_delay_2_55,4995,191,e_maintaskTrials_2_l
5ff0a827571a1af480c17fdc,Empty_filled,0,d4e11846da3abca04d42bf37c13dc16cc049439ebe190eb850892c05b0f1bb69,3976,False,keypress,testresponse_l_J,260,['Longer'],choice-response,Shorter,5ffcf97c73cd6e385a5fa726,e300ms_delay_2_54,4327,192,e_maintaskTrials_2_l
5ff0a827571a1af480c17fdc,Empty_filled,0,d4e11846da3abca04d42bf37c13dc16cc049439ebe190eb850892c05b0f1bb69,3976,True,keypress,testresponse_s_F,422,['Shorter'],choice-response,Shorter,5ffcf97c73cd6e385a5fa726,e300ms_delay_2_82,4610,193,e_maintaskTrials_2_s
5ff0a827571a1af480c17fdc,Empty_filled,0,d4e11846da3abca04d42bf37c13dc16cc049439ebe190eb850892c05b0f1bb69,3976,False,keypress,testresponse_l_J,768,['Longer'],choice-response,Shorter,5ffcf97c73cd6e385a5fa726,e300ms_delay_2_56,4909,194,e_maintaskTrials_2_l
5ff0a827571a1af480c17fdc,Empty_filled,0,d4e11846da3abca04d42bf37c13dc16cc049439ebe190eb850892c05b0f1bb69,3976,True,keypress,testresponse_l_J,373,['Longer'],choice-response,Longer,5ffcf97c73cd6e385a5fa726,e300ms_delay_2_84,4558,195,e_maintaskTrials_2_l
5ff0a827571a1af480c17fdc,Empty_filled,0,d4e11846da3abca04d42bf37c13dc16cc049439ebe190eb850892c05b0f1bb69,3976,True,keypress,testresponse_s_F,400,['Shorter'],choice-response,Shorter,5ffcf97c73cd6e385a5fa726,e300ms_delay_2_81,4482,196,e_maintaskTrials_2_s
5ff0a827571a1af480c17fdc,Empty_filled,0,d4e11846da3abca04d42bf37c13dc16cc049439ebe190eb850892c05b0f1bb69,3976,True,keypress,testresponse_l_J,576,['Longer'],choice-response,Longer,5ffcf97c73cd6e385a5fa726,e300ms_delay_2_94,4850,197,e_maintaskTrials_2_l
5ff0a827571a1af480c17fdc,Empty_filled,0,d4e11846da3abca04d42bf37c13dc16cc049439ebe190eb850892c05b0f1bb69,3976,False,keypress,testresponse_s_F,925,['Shorter'],choice-response,Longer,5ffcf97c73cd6e385a5fa726,e300ms_delay_2_93,5211,198,e_maintaskTrials_2_s
5ff0a827571a1af480c17fdc,Empty_filled,0,d4e11846da3abca04d42bf37c13dc16cc049439ebe190eb850892c05b0f1bb69,3976,True,keypress,testresponse_s_F,222,['Shorter'],choice-response,Shorter,5ffcf97c73cd6e385a5fa726,e300ms_delay_2_51,4762,199,e_maintaskTrials_2_s
5ff0a827571a1af480c17fdc,Empty_filled,0,d4e11846da3abca04d42bf37c13dc16cc049439ebe190eb850892c05b0f1bb69,3976,False,keypress,testresponse_l_J,352,['Longer'],choice-response,Shorter,5ffcf97c73cd6e385a5fa726,e300ms_delay_2_54,4485,200,e_maintaskTrials_2_l
5ff0a827571a1af480c17fdc,Empty_filled,0,d4e11846da3abca04d42bf37c13dc16cc049439ebe190eb850892c05b0f1bb69,3976,False,keypress,testresponse_l_J,363,['Longer'],choice-response,Shorter,5ffcf97c73cd6e385a5fa726,e300ms_delay_2_84,4610,201,e_maintaskTrials_2_l
5ff0a827571a1af480c17fdc,Empty_filled,0,d4e11846da3abca04d42bf37c13dc16cc049439ebe190eb850892c05b0f1bb69,3976,True,keypress,testresponse_s_F,209,['Shorter'],choice-response,Shorter,5ffcf97c73cd6e385a5fa726,e300ms_delay_2_93,4437,202,e_maintaskTrials_2_s
5ff0a827571a1af480c17fdc,Empty_filled,0,d4e11846da3abca04d42bf37c13dc16cc049439ebe190eb850892c05b0f1bb69,3976,False,keypress,testresponse_s_F,338,['Shorter'],choice-response,Longer,5ffcf97c73cd6e385a5fa726,e300ms_delay_2_83,4519,203,e_maintaskTrials_2_s
5ff0a827571a1af480c17fdc,Empty_filled,0,d4e11846da3abca04d42bf37c13dc16cc049439ebe190eb850892c05b0f1bb69,3976,True,keypress,testresponse_s_F,246,['Shorter'],choice-response,Shorter,5ffcf97c73cd6e385a5fa726,e300ms_delay_2_82,4864,204,e_maintaskTrials_2_s
5ff0a827571a1af480c17fdc,Empty_filled,0,d4e11846da3abca04d42bf37c13dc16cc049439ebe190eb850892c05b0f1bb69,3976,False,keypress,testresponse_s_F,821,['Shorter'],choice-response,Longer,5ffcf97c73cd6e385a5fa726,e300ms_delay_2_92,5005,205,e_maintaskTrials_2_s
5ff0a827571a1af480c17fdc,Empty_filled,0,d4e11846da3abca04d42bf37c13dc16cc049439ebe190eb850892c05b0f1bb69,3976,True,keypress,testresponse_s_F,301,['Shorter'],choice-response,Shorter,5ffcf97c73cd6e385a5fa726,e300ms_delay_2_53,4385,206,e_maintaskTrials_2_s
5ff0a827571a1af480c17fdc,Empty_filled,0,d4e11846da3abca04d42bf37c13dc16cc049439ebe190eb850892c05b0f1bb69,3976,True,keypress,testresponse_l_J,245,['Longer'],choice-response,Longer,5ffcf97c73cd6e385a5fa726,e300ms_delay_2_85,4780,207,e_maintaskTrials_2_l
5ff0a827571a1af480c17fdc,Empty_filled,0,d4e11846da3abca04d42bf37c13dc16cc049439ebe190eb850892c05b0f1bb69,3976,False,keypress,testresponse_s_F,926,['Shorter'],choice-response,Longer,5ffcf97c73cd6e385a5fa726,e300ms_delay_2_81,5019,208,e_maintaskTrials_2_s
5ff0a827571a1af480c17fdc,Empty_filled,0,d4e11846da3abca04d42bf37c13dc16cc049439ebe190eb850892c05b0f1bb69,3976,True,keypress,testresponse_s_F,387,['Shorter'],choice-response,Shorter,5ffcf97c73cd6e385a5fa726,e300ms_delay_2_52,4961,209,e_maintaskTrials_2_s
5ff0a827571a1af480c17fdc,Empty_filled,0,d4e11846da3abca04d42bf37c13dc16cc049439ebe190eb850892c05b0f1bb69,3976,True,keypress,testresponse_l_J,240,['Longer'],choice-response,Longer,5ffcf97c73cd6e385a5fa726,e300ms_delay_2_86,4468,210,e_maintaskTrials_2_l
5ff0a827571a1af480c17fdc,Empty_filled,0,d4e11846da3abca04d42bf37c13dc16cc049439ebe190eb850892c05b0f1bb69,3976,True,keypress,testresponse_l_J,548,['Longer'],choice-response,Longer,5ffcf97c73cd6e385a5fa726,e300ms_delay_2_55,5077,211,e_maintaskTrials_2_l
5ff0a827571a1af480c17fdc,Empty_filled,0,d4e11846da3abca04d42bf37c13dc16cc049439ebe190eb850892c05b0f1bb69,3976,True,keypress,testresponse_l_J,232,['Longer'],choice-response,Longer,5ffcf97c73cd6e385a5fa726,e300ms_delay_2_95,5034,212,e_maintaskTrials_2_l
5ff0a827571a1af480c17fdc,Empty_filled,0,d4e11846da3abca04d42bf37c13dc16cc049439ebe190eb850892c05b0f1bb69,3976,True,keypress,testresponse_l_J,281,['Longer'],choice-response,Longer,5ffcf97c73cd6e385a5fa726,e300ms_delay_2_96,4567,213,e_maintaskTrials_2_l
5ff0a827571a1af480c17fdc,Empty_filled,0,d4e11846da3abca04d42bf37c13dc16cc049439ebe190eb850892c05b0f1bb69,3976,True,keypress,testresponse_l_J,247,['Longer'],choice-response,Longer,5ffcf97c73cd6e385a5fa726,e300ms_delay_2_94,4535,214,e_maintaskTrials_2_l
5ff0a827571a1af480c17fdc,Empty_filled,0,d4e11846da3abca04d42bf37c13dc16cc049439ebe190eb850892c05b0f1bb69,3976,False,keypress,testresponse_s_F,211,['Shorter'],choice-response,Longer,5ffcf97c73cd6e385a5fa726,e300ms_delay_2_91,4733,215,e_maintaskTrials_2_s
5ff0a827571a1af480c17fdc,Empty_filled,0,d4e11846da3abca04d42bf37c13dc16cc049439ebe190eb850892c05b0f1bb69,3976,True,keypress,testresponse_l_J,747,['Longer'],choice-response,Longer,5ffcf97c73cd6e385a5fa726,e300ms_delay_2_56,4881,216,e_maintaskTrials_2_l
5ff0a827571a1af480c17fdc,Empty_filled,0,d4e11846da3abca04d42bf37c13dc16cc049439ebe190eb850892c05b0f1bb69,3976,False,keypress,testresponse_s_F,251,['Shorter'],choice-response,Longer,5ffcf97c73cd6e385a5fa726,e300ms_delay_2_93,4516,217,e_maintaskTrials_2_s
5ff0a827571a1af480c17fdc,Empty_filled,0,d4e11846da3abca04d42bf37c13dc16cc049439ebe190eb850892c05b0f1bb69,3976,True,keypress,testresponse_l_J,180,['Longer'],choice-response,Longer,5ffcf97c73cd6e385a5fa726,e300ms_delay_2_56,4315,218,e_maintaskTrials_2_l
5ff0a827571a1af480c17fdc,Empty_filled,0,d4e11846da3abca04d42bf37c13dc16cc049439ebe190eb850892c05b0f1bb69,3976,True,keypress,testresponse_l_J,775,['Longer'],choice-response,Longer,5ffcf97c73cd6e385a5fa726,e300ms_delay_2_55,4903,219,e_maintaskTrials_2_l
5ff0a827571a1af480c17fdc,Empty_filled,0,d4e11846da3abca04d42bf37c13dc16cc049439ebe190eb850892c05b0f1bb69,3976,False,keypress,testresponse_s_F,628,['Shorter'],choice-response,Longer,5ffcf97c73cd6e385a5fa726,e300ms_delay_2_92,4833,220,e_maintaskTrials_2_s
5ff0a827571a1af480c17fdc,Empty_filled,0,d4e11846da3abca04d42bf37c13dc16cc049439ebe190eb850892c05b0f1bb69,3976,True,keypress,testresponse_l_J,619,['Longer'],choice-response,Longer,5ffcf97c73cd6e385a5fa726,e300ms_delay_2_84,5066,221,e_maintaskTrials_2_l
5ff0a827571a1af480c17fdc,Empty_filled,0,d4e11846da3abca04d42bf37c13dc16cc049439ebe190eb850892c05b0f1bb69,3976,True,keypress,testresponse_s_F,344,['Shorter'],choice-response,Shorter,5ffcf97c73cd6e385a5fa726,e300ms_delay_2_91,4591,222,e_maintaskTrials_2_s
5ff0a827571a1af480c17fdc,Empty_filled,0,d4e11846da3abca04d42bf37c13dc16cc049439ebe190eb850892c05b0f1bb69,3976,True,keypress,testresponse_s_F,345,['Shorter'],choice-response,Shorter,5ffcf97c73cd6e385a5fa726,e300ms_delay_2_51,4405,223,e_maintaskTrials_2_s
5ff0a827571a1af480c17fdc,Empty_filled,0,d4e11846da3abca04d42bf37c13dc16cc049439ebe190eb850892c05b0f1bb69,3976,True,keypress,testresponse_l_J,872,['Longer'],choice-response,Longer,5ffcf97c73cd6e385a5fa726,e300ms_delay_2_96,5366,224,e_maintaskTrials_2_l
5ff0a827571a1af480c17fdc,Empty_filled,0,d4e11846da3abca04d42bf37c13dc16cc049439ebe190eb850892c05b0f1bb69,3976,False,keypress,testresponse_s_F,542,['Shorter'],choice-response,Longer,5ffcf97c73cd6e385a5fa726,e300ms_delay_2_53,4600,225,e_maintaskTrials_2_s
5ff0a827571a1af480c17fdc,Empty_filled,0,d4e11846da3abca04d42bf37c13dc16cc049439ebe190eb850892c05b0f1bb69,3976,True,keypress,testresponse_l_J,298,['Longer'],choice-response,Longer,5ffcf97c73cd6e385a5fa726,e300ms_delay_2_94,4565,226,e_maintaskTrials_2_l
5ff0a827571a1af480c17fdc,Empty_filled,0,d4e11846da3abca04d42bf37c13dc16cc049439ebe190eb850892c05b0f1bb69,3976,False,keypress,testresponse_l_J,583,['Longer'],choice-response,Shorter,5ffcf97c73cd6e385a5fa726,e300ms_delay_2_85,5277,227,e_maintaskTrials_2_l
5ff0a827571a1af480c17fdc,Empty_filled,0,d4e11846da3abca04d42bf37c13dc16cc049439ebe190eb850892c05b0f1bb69,3976,True,keypress,testresponse_s_F,429,['Shorter'],choice-response,Shorter,5ffcf97c73cd6e385a5fa726,e300ms_delay_2_52,4482,228,e_maintaskTrials_2_s
5ff0a827571a1af480c17fdc,Empty_filled,0,d4e11846da3abca04d42bf37c13dc16cc049439ebe190eb850892c05b0f1bb69,3976,True,keypress,testresponse_l_J,250,['Longer'],choice-response,Longer,5ffcf97c73cd6e385a5fa726,e300ms_delay_2_54,4783,229,e_maintaskTrials_2_l
5ff0a827571a1af480c17fdc,Empty_filled,0,d4e11846da3abca04d42bf37c13dc16cc049439ebe190eb850892c05b0f1bb69,3976,False,keypress,testresponse_s_F,544,['Shorter'],choice-response,Longer,5ffcf97c73cd6e385a5fa726,e300ms_delay_2_83,5161,230,e_maintaskTrials_2_s
5ff0a827571a1af480c17fdc,Empty_filled,0,d4e11846da3abca04d42bf37c13dc16cc049439ebe190eb850892c05b0f1bb69,3976,True,keypress,testresponse_l_J,150,['Longer'],choice-response,Longer,5ffcf97c73cd6e385a5fa726,e300ms_delay_2_86,4392,231,e_maintaskTrials_2_l
5ff0a827571a1af480c17fdc,Empty_filled,0,d4e11846da3abca04d42bf37c13dc16cc049439ebe190eb850892c05b0f1bb69,3976,True,keypress,testresponse_l_J,62,['Longer'],choice-response,Longer,5ffcf97c73cd6e385a5fa726,e300ms_delay_2_95,4320,232,e_maintaskTrials_2_l
5ff0a827571a1af480c17fdc,Empty_filled,0,d4e11846da3abca04d42bf37c13dc16cc049439ebe190eb850892c05b0f1bb69,3976,True,keypress,testresponse_s_F,362,['Shorter'],choice-response,Shorter,5ffcf97c73cd6e385a5fa726,e300ms_delay_2_82,4953,233,e_maintaskTrials_2_s
5ff0a827571a1af480c17fdc,Empty_filled,0,d4e11846da3abca04d42bf37c13dc16cc049439ebe190eb850892c05b0f1bb69,3976,True,keypress,testresponse_s_F,412,['Shorter'],choice-response,Shorter,5ffcf97c73cd6e385a5fa726,e300ms_delay_2_81,4521,234,e_maintaskTrials_2_s
5ff0a827571a1af480c17fdc,Empty_filled,0,d4e11846da3abca04d42bf37c13dc16cc049439ebe190eb850892c05b0f1bb69,3976,True,keypress,exampleresponse_l_J,1206,['Longer'],choice-response,Longer,5ffcf97c73cd6e385a5fa726,f300ms_long,8726,235,f_example_l
5ff0a827571a1af480c17fdc,Empty_filled,0,d4e11846da3abca04d42bf37c13dc16cc049439ebe190eb850892c05b0f1bb69,3976,True,keypress,exampleresponse_s_F,449,['Shorter'],choice-response,Shorter,5ffcf97c73cd6e385a5fa726,f300ms_short,7042,236,f_example_s
5ff0a827571a1af480c17fdc,Empty_filled,0,d4e11846da3abca04d42bf37c13dc16cc049439ebe190eb850892c05b0f1bb69,3976,True,keypress,exampleresponse_s_F,567,['Shorter'],choice-response,Shorter,5ffcf97c73cd6e385a5fa726,f300ms_short,7555,237,f_example_s
5ff0a827571a1af480c17fdc,Empty_filled,0,d4e11846da3abca04d42bf37c13dc16cc049439ebe190eb850892c05b0f1bb69,3976,True,keypress,exampleresponse_l_J,353,['Longer'],choice-response,Longer,5ffcf97c73cd6e385a5fa726,f300ms_long,7039,238,f_example_l
5ff0a827571a1af480c17fdc,Empty_filled,0,d4e11846da3abca04d42bf37c13dc16cc049439ebe190eb850892c05b0f1bb69,3976,True,keypress,practiceresponse_l_J,1018,['Longer'],choice-response,Longer,5ffcf97c73cd6e385a5fa726,f300ms_delay_2_86,7526,239,f_practiceTrials_l
5ff0a827571a1af480c17fdc,Empty_filled,0,d4e11846da3abca04d42bf37c13dc16cc049439ebe190eb850892c05b0f1bb69,3976,False,keypress,practiceresponse_s_F,1549,['Shorter'],choice-response,Longer,5ffcf97c73cd6e385a5fa726,f300ms_delay_2_81,8011,240,f_practiceTrials_s
5ff0a827571a1af480c17fdc,Empty_filled,0,d4e11846da3abca04d42bf37c13dc16cc049439ebe190eb850892c05b0f1bb69,3976,True,keypress,practiceresponse_s_F,530,['Shorter'],choice-response,Shorter,5ffcf97c73cd6e385a5fa726,f300ms_delay_2_81,7182,241,f_practiceTrials_s
5ff0a827571a1af480c17fdc,Empty_filled,0,d4e11846da3abca04d42bf37c13dc16cc049439ebe190eb850892c05b0f1bb69,3976,True,keypress,practiceresponse_l_J,502,['Longer'],choice-response,Longer,5ffcf97c73cd6e385a5fa726,f300ms_delay_2_86,7109,242,f_practiceTrials_l
5ff0a827571a1af480c17fdc,Empty_filled,0,d4e11846da3abca04d42bf37c13dc16cc049439ebe190eb850892c05b0f1bb69,3976,True,keypress,practiceresponse_l_J,496,['Longer'],choice-response,Longer,5ffcf97c73cd6e385a5fa726,f300ms_delay_2_86,7166,243,f_practiceTrials_l
5ff0a827571a1af480c17fdc,Empty_filled,0,d4e11846da3abca04d42bf37c13dc16cc049439ebe190eb850892c05b0f1bb69,3976,True,keypress,practiceresponse_s_F,592,['Shorter'],choice-response,Shorter,5ffcf97c73cd6e385a5fa726,f300ms_delay_2_81,7074,244,f_practiceTrials_s
5ff0a827571a1af480c17fdc,Empty_filled,0,d4e11846da3abca04d42bf37c13dc16cc049439ebe190eb850892c05b0f1bb69,3976,True,keypress,practiceresponse_s_F,453,['Shorter'],choice-response,Shorter,5ffcf97c73cd6e385a5fa726,f300ms_delay_2_81,7020,245,f_practiceTrials_s
5ff0a827571a1af480c17fdc,Empty_filled,0,d4e11846da3abca04d42bf37c13dc16cc049439ebe190eb850892c05b0f1bb69,3976,True,keypress,practiceresponse_l_J,711,['Longer'],choice-response,Longer,5ffcf97c73cd6e385a5fa726,f300ms_delay_2_86,7744,246,f_practiceTrials_l
5ff0a827571a1af480c17fdc,Empty_filled,0,d4e11846da3abca04d42bf37c13dc16cc049439ebe190eb850892c05b0f1bb69,3976,True,keypress,practiceresponse_s_F,2238,['Shorter'],choice-response,Shorter,5ffcf97c73cd6e385a5fa726,f300ms_delay_2_81,8694,247,f_practiceTrials_s
5ff0a827571a1af480c17fdc,Empty_filled,0,d4e11846da3abca04d42bf37c13dc16cc049439ebe190eb850892c05b0f1bb69,3976,False,keypress,practiceresponse_l_J,942,['Longer'],choice-response,Shorter,5ffcf97c73cd6e385a5fa726,f300ms_delay_2_86,7418,248,f_practiceTrials_l
5ff0a827571a1af480c17fdc,Empty_filled,0,d4e11846da3abca04d42bf37c13dc16cc049439ebe190eb850892c05b0f1bb69,3976,True,keypress,practiceresponse_s_F,503,['Shorter'],choice-response,Shorter,5ffcf97c73cd6e385a5fa726,f300ms_delay_2_81,6967,249,f_practiceTrials_s
5ff0a827571a1af480c17fdc,Empty_filled,0,d4e11846da3abca04d42bf37c13dc16cc049439ebe190eb850892c05b0f1bb69,3976,False,keypress,practiceresponse_l_J,526,['Longer'],choice-response,Shorter,5ffcf97c73cd6e385a5fa726,f300ms_delay_2_86,7058,250,f_practiceTrials_l
5ff0a827571a1af480c17fdc,Empty_filled,0,d4e11846da3abca04d42bf37c13dc16cc049439ebe190eb850892c05b0f1bb69,3976,True,keypress,testresponse_s_F,531,['Shorter'],choice-response,Shorter,5ffcf97c73cd6e385a5fa726,f300ms_delay_2_51,4281,251,f_maintaskTrials_2_s
5ff0a827571a1af480c17fdc,Empty_filled,0,d4e11846da3abca04d42bf37c13dc16cc049439ebe190eb850892c05b0f1bb69,3976,True,keypress,testresponse_s_F,369,['Shorter'],choice-response,Shorter,5ffcf97c73cd6e385a5fa726,f300ms_delay_2_91,4304,252,f_maintaskTrials_2_s
5ff0a827571a1af480c17fdc,Empty_filled,0,d4e11846da3abca04d42bf37c13dc16cc049439ebe190eb850892c05b0f1bb69,3976,True,keypress,testresponse_l_J,545,['Longer'],choice-response,Longer,5ffcf97c73cd6e385a5fa726,f300ms_delay_2_86,4480,253,f_maintaskTrials_2_l
5ff0a827571a1af480c17fdc,Empty_filled,0,d4e11846da3abca04d42bf37c13dc16cc049439ebe190eb850892c05b0f1bb69,3976,False,keypress,testresponse_l_J,535,['Longer'],choice-response,Shorter,5ffcf97c73cd6e385a5fa726,f300ms_delay_2_94,4491,254,f_maintaskTrials_2_l
5ff0a827571a1af480c17fdc,Empty_filled,0,d4e11846da3abca04d42bf37c13dc16cc049439ebe190eb850892c05b0f1bb69,3976,True,keypress,testresponse_s_F,521,['Shorter'],choice-response,Shorter,5ffcf97c73cd6e385a5fa726,f300ms_delay_2_52,4259,255,f_maintaskTrials_2_s
5ff0a827571a1af480c17fdc,Empty_filled,0,d4e11846da3abca04d42bf37c13dc16cc049439ebe190eb850892c05b0f1bb69,3976,True,keypress,testresponse_s_F,491,['Shorter'],choice-response,Shorter,5ffcf97c73cd6e385a5fa726,f300ms_delay_2_81,4325,256,f_maintaskTrials_2_s
5ff0a827571a1af480c17fdc,Empty_filled,0,d4e11846da3abca04d42bf37c13dc16cc049439ebe190eb850892c05b0f1bb69,3976,False,keypress,testresponse_l_J,899,['Longer'],choice-response,Shorter,5ffcf97c73cd6e385a5fa726,f300ms_delay_2_54,4669,257,f_maintaskTrials_2_l
5ff0a827571a1af480c17fdc,Empty_filled,0,d4e11846da3abca04d42bf37c13dc16cc049439ebe190eb850892c05b0f1bb69,3976,False,keypress,testresponse_l_J,1719,['Longer'],choice-response,Shorter,5ffcf97c73cd6e385a5fa726,f300ms_delay_2_84,5596,258,f_maintaskTrials_2_l
5ff0a827571a1af480c17fdc,Empty_filled,0,d4e11846da3abca04d42bf37c13dc16cc049439ebe190eb850892c05b0f1bb69,3976,False,keypress,testresponse_s_F,430,['Shorter'],choice-response,Longer,5ffcf97c73cd6e385a5fa726,f300ms_delay_2_82,4273,259,f_maintaskTrials_2_s
5ff0a827571a1af480c17fdc,Empty_filled,0,d4e11846da3abca04d42bf37c13dc16cc049439ebe190eb850892c05b0f1bb69,3976,True,keypress,testresponse_l_J,971,['Longer'],choice-response,Longer,5ffcf97c73cd6e385a5fa726,f300ms_delay_2_85,5254,260,f_maintaskTrials_2_l
5ff0a827571a1af480c17fdc,Empty_filled,0,d4e11846da3abca04d42bf37c13dc16cc049439ebe190eb850892c05b0f1bb69,3976,True,keypress,testresponse_s_F,547,['Shorter'],choice-response,Shorter,5ffcf97c73cd6e385a5fa726,f300ms_delay_2_53,4812,261,f_maintaskTrials_2_s
5ff0a827571a1af480c17fdc,Empty_filled,0,d4e11846da3abca04d42bf37c13dc16cc049439ebe190eb850892c05b0f1bb69,3976,True,keypress,testresponse_l_J,1006,['Longer'],choice-response,Longer,5ffcf97c73cd6e385a5fa726,f300ms_delay_2_96,4997,262,f_maintaskTrials_2_l
5ff0a827571a1af480c17fdc,Empty_filled,0,d4e11846da3abca04d42bf37c13dc16cc049439ebe190eb850892c05b0f1bb69,3976,True,keypress,testresponse_s_F,2474,['Shorter'],choice-response,Shorter,5ffcf97c73cd6e385a5fa726,f300ms_delay_2_93,6397,263,f_maintaskTrials_2_s
5ff0a827571a1af480c17fdc,Empty_filled,0,d4e11846da3abca04d42bf37c13dc16cc049439ebe190eb850892c05b0f1bb69,3976,True,keypress,testresponse_l_J,626,['Longer'],choice-response,Longer,5ffcf97c73cd6e385a5fa726,f300ms_delay_2_95,4572,264,f_maintaskTrials_2_l
5ff0a827571a1af480c17fdc,Empty_filled,0,d4e11846da3abca04d42bf37c13dc16cc049439ebe190eb850892c05b0f1bb69,3976,True,keypress,testresponse_l_J,464,['Longer'],choice-response,Longer,5ffcf97c73cd6e385a5fa726,f300ms_delay_2_56,4239,265,f_maintaskTrials_2_l
5ff0a827571a1af480c17fdc,Empty_filled,0,d4e11846da3abca04d42bf37c13dc16cc049439ebe190eb850892c05b0f1bb69,3976,False,keypress,testresponse_s_F,2807,['Shorter'],choice-response,Longer,5ffcf97c73cd6e385a5fa726,f300ms_delay_2_92,6733,266,f_maintaskTrials_2_s
5ff0a827571a1af480c17fdc,Empty_filled,0,d4e11846da3abca04d42bf37c13dc16cc049439ebe190eb850892c05b0f1bb69,3976,True,keypress,testresponse_s_F,684,['Shorter'],choice-response,Shorter,5ffcf97c73cd6e385a5fa726,f300ms_delay_2_83,4538,267,f_maintaskTrials_2_s
5ff0a827571a1af480c17fdc,Empty_filled,0,d4e11846da3abca04d42bf37c13dc16cc049439ebe190eb850892c05b0f1bb69,3976,False,keypress,testresponse_l_J,708,['Longer'],choice-response,Shorter,5ffcf97c73cd6e385a5fa726,f300ms_delay_2_55,4503,268,f_maintaskTrials_2_l
5ff0a827571a1af480c17fdc,Empty_filled,0,d4e11846da3abca04d42bf37c13dc16cc049439ebe190eb850892c05b0f1bb69,3976,True,keypress,testresponse_l_J,557,['Longer'],choice-response,Longer,5ffcf97c73cd6e385a5fa726,f300ms_delay_2_84,4442,269,f_maintaskTrials_2_l
5ff0a827571a1af480c17fdc,Empty_filled,0,d4e11846da3abca04d42bf37c13dc16cc049439ebe190eb850892c05b0f1bb69,3976,True,keypress,testresponse_s_F,1289,['Shorter'],choice-response,Shorter,5ffcf97c73cd6e385a5fa726,f300ms_delay_2_51,5084,270,f_maintaskTrials_2_s
5ff0a827571a1af480c17fdc,Empty_filled,0,d4e11846da3abca04d42bf37c13dc16cc049439ebe190eb850892c05b0f1bb69,3976,False,keypress,testresponse_s_F,4300,['Shorter'],choice-response,Longer,5ffcf97c73cd6e385a5fa726,f300ms_delay_2_53,8058,271,f_maintaskTrials_2_s
5ff0a827571a1af480c17fdc,Empty_filled,0,d4e11846da3abca04d42bf37c13dc16cc049439ebe190eb850892c05b0f1bb69,3976,True,keypress,testresponse_l_J,506,['Longer'],choice-response,Longer,5ffcf97c73cd6e385a5fa726,f300ms_delay_2_54,4302,272,f_maintaskTrials_2_l
5ff0a827571a1af480c17fdc,Empty_filled,0,d4e11846da3abca04d42bf37c13dc16cc049439ebe190eb850892c05b0f1bb69,3976,True,keypress,testresponse_l_J,29372,['Longer'],choice-response,Longer,5ffcf97c73cd6e385a5fa726,f300ms_delay_2_86,33243,273,f_maintaskTrials_2_l
5ff0a827571a1af480c17fdc,Empty_filled,0,d4e11846da3abca04d42bf37c13dc16cc049439ebe190eb850892c05b0f1bb69,3976,True,keypress,testresponse_s_F,900,['Shorter'],choice-response,Shorter,5ffcf97c73cd6e385a5fa726,f300ms_delay_2_82,5698,274,f_maintaskTrials_2_s
5ff0a827571a1af480c17fdc,Empty_filled,0,d4e11846da3abca04d42bf37c13dc16cc049439ebe190eb850892c05b0f1bb69,3976,False,keypress,testresponse_s_F,1551,['Shorter'],choice-response,Longer,5ffcf97c73cd6e385a5fa726,f300ms_delay_2_91,5482,275,f_maintaskTrials_2_s
5ff0a827571a1af480c17fdc,Empty_filled,0,d4e11846da3abca04d42bf37c13dc16cc049439ebe190eb850892c05b0f1bb69,3976,True,keypress,testresponse_l_J,1182,['Longer'],choice-response,Longer,5ffcf97c73cd6e385a5fa726,f300ms_delay_2_95,5144,276,f_maintaskTrials_2_l
5ff0a827571a1af480c17fdc,Empty_filled,0,d4e11846da3abca04d42bf37c13dc16cc049439ebe190eb850892c05b0f1bb69,3976,True,keypress,testresponse_l_J,1888,['Longer'],choice-response,Longer,5ffcf97c73cd6e385a5fa726,f300ms_delay_2_85,5780,277,f_maintaskTrials_2_l
5ff0a827571a1af480c17fdc,Empty_filled,0,d4e11846da3abca04d42bf37c13dc16cc049439ebe190eb850892c05b0f1bb69,3976,True,keypress,testresponse_s_F,887,['Shorter'],choice-response,Shorter,5ffcf97c73cd6e385a5fa726,f300ms_delay_2_52,4589,278,f_maintaskTrials_2_s
5ff0a827571a1af480c17fdc,Empty_filled,0,d4e11846da3abca04d42bf37c13dc16cc049439ebe190eb850892c05b0f1bb69,3976,True,keypress,testresponse_s_F,721,['Shorter'],choice-response,Shorter,5ffcf97c73cd6e385a5fa726,f300ms_delay_2_81,4523,279,f_maintaskTrials_2_s
5ff0a827571a1af480c17fdc,Empty_filled,0,d4e11846da3abca04d42bf37c13dc16cc049439ebe190eb850892c05b0f1bb69,3976,True,keypress,testresponse_l_J,536,['Longer'],choice-response,Longer,5ffcf97c73cd6e385a5fa726,f300ms_delay_2_94,4968,280,f_maintaskTrials_2_l
5ff0a827571a1af480c17fdc,Empty_filled,0,d4e11846da3abca04d42bf37c13dc16cc049439ebe190eb850892c05b0f1bb69,3976,True,keypress,testresponse_s_F,644,['Shorter'],choice-response,Shorter,5ffcf97c73cd6e385a5fa726,f300ms_delay_2_83,4914,281,f_maintaskTrials_2_s
5ff0a827571a1af480c17fdc,Empty_filled,0,d4e11846da3abca04d42bf37c13dc16cc049439ebe190eb850892c05b0f1bb69,3976,False,keypress,testresponse_l_J,1432,['Longer'],choice-response,Shorter,5ffcf97c73cd6e385a5fa726,f300ms_delay_2_56,5203,282,f_maintaskTrials_2_l
5ff0a827571a1af480c17fdc,Empty_filled,0,d4e11846da3abca04d42bf37c13dc16cc049439ebe190eb850892c05b0f1bb69,3976,True,keypress,testresponse_l_J,909,['Longer'],choice-response,Longer,5ffcf97c73cd6e385a5fa726,f300ms_delay_2_96,4886,283,f_maintaskTrials_2_l
5ff0a827571a1af480c17fdc,Empty_filled,0,d4e11846da3abca04d42bf37c13dc16cc049439ebe190eb850892c05b0f1bb69,3976,True,keypress,testresponse_s_F,574,['Shorter'],choice-response,Shorter,5ffcf97c73cd6e385a5fa726,f300ms_delay_2_92,4481,284,f_maintaskTrials_2_s
5ff0a827571a1af480c17fdc,Empty_filled,0,d4e11846da3abca04d42bf37c13dc16cc049439ebe190eb850892c05b0f1bb69,3976,False,keypress,testresponse_s_F,430,['Shorter'],choice-response,Longer,5ffcf97c73cd6e385a5fa726,f300ms_delay_2_93,4359,285,f_maintaskTrials_2_s
5ff0a827571a1af480c17fdc,Empty_filled,0,d4e11846da3abca04d42bf37c13dc16cc049439ebe190eb850892c05b0f1bb69,3976,True,keypress,testresponse_l_J,515,['Longer'],choice-response,Longer,5ffcf97c73cd6e385a5fa726,f300ms_delay_2_55,4312,286,f_maintaskTrials_2_l
5ff0a827571a1af480c17fdc,Empty_filled,0,d4e11846da3abca04d42bf37c13dc16cc049439ebe190eb850892c05b0f1bb69,3976,True,keypress,testresponse_s_F,531,['Shorter'],choice-response,Shorter,5ffcf97c73cd6e385a5fa726,f300ms_delay_2_51,4740,287,f_maintaskTrials_2_s
5ff0a827571a1af480c17fdc,Empty_filled,0,d4e11846da3abca04d42bf37c13dc16cc049439ebe190eb850892c05b0f1bb69,3976,True,keypress,testresponse_s_F,525,['Shorter'],choice-response,Shorter,5ffcf97c73cd6e385a5fa726,f300ms_delay_2_91,4901,288,f_maintaskTrials_2_s
5ff0a827571a1af480c17fdc,Empty_filled,0,d4e11846da3abca04d42bf37c13dc16cc049439ebe190eb850892c05b0f1bb69,3976,True,keypress,testresponse_l_J,610,['Longer'],choice-response,Longer,5ffcf97c73cd6e385a5fa726,f300ms_delay_2_95,4523,289,f_maintaskTrials_2_l
5ff0a827571a1af480c17fdc,Empty_filled,0,d4e11846da3abca04d42bf37c13dc16cc049439ebe190eb850892c05b0f1bb69,3976,True,keypress,testresponse_l_J,448,['Longer'],choice-response,Longer,5ffcf97c73cd6e385a5fa726,f300ms_delay_2_96,4424,290,f_maintaskTrials_2_l
5ff0a827571a1af480c17fdc,Empty_filled,0,d4e11846da3abca04d42bf37c13dc16cc049439ebe190eb850892c05b0f1bb69,3976,False,keypress,testresponse_l_J,282,['Longer'],choice-response,Shorter,5ffcf97c73cd6e385a5fa726,f300ms_delay_2_54,4364,291,f_maintaskTrials_2_l
5ff0a827571a1af480c17fdc,Empty_filled,0,d4e11846da3abca04d42bf37c13dc16cc049439ebe190eb850892c05b0f1bb69,3976,False,keypress,testresponse_s_F,3686,['Shorter'],choice-response,Longer,5ffcf97c73cd6e385a5fa726,f300ms_delay_2_92,7659,292,f_maintaskTrials_2_s
5ff0a827571a1af480c17fdc,Empty_filled,0,d4e11846da3abca04d42bf37c13dc16cc049439ebe190eb850892c05b0f1bb69,3976,True,keypress,testresponse_s_F,1290,['Shorter'],choice-response,Shorter,5ffcf97c73cd6e385a5fa726,f300ms_delay_2_82,5117,293,f_maintaskTrials_2_s
5ff0a827571a1af480c17fdc,Empty_filled,0,d4e11846da3abca04d42bf37c13dc16cc049439ebe190eb850892c05b0f1bb69,3976,True,keypress,testresponse_l_J,1128,['Longer'],choice-response,Longer,5ffcf97c73cd6e385a5fa726,f300ms_delay_2_84,5014,294,f_maintaskTrials_2_l
5ff0a827571a1af480c17fdc,Empty_filled,0,d4e11846da3abca04d42bf37c13dc16cc049439ebe190eb850892c05b0f1bb69,3976,False,keypress,testresponse_s_F,774,['Shorter'],choice-response,Longer,5ffcf97c73cd6e385a5fa726,f300ms_delay_2_83,4605,295,f_maintaskTrials_2_s
5ff0a827571a1af480c17fdc,Empty_filled,0,d4e11846da3abca04d42bf37c13dc16cc049439ebe190eb850892c05b0f1bb69,3976,True,keypress,testresponse_l_J,640,['Longer'],choice-response,Longer,5ffcf97c73cd6e385a5fa726,f300ms_delay_2_85,4957,296,f_maintaskTrials_2_l
5ff0a827571a1af480c17fdc,Empty_filled,0,d4e11846da3abca04d42bf37c13dc16cc049439ebe190eb850892c05b0f1bb69,3976,True,keypress,testresponse_s_F,437,['Shorter'],choice-response,Shorter,5ffcf97c73cd6e385a5fa726,f300ms_delay_2_52,4149,297,f_maintaskTrials_2_s
5ff0a827571a1af480c17fdc,Empty_filled,0,d4e11846da3abca04d42bf37c13dc16cc049439ebe190eb850892c05b0f1bb69,3976,True,keypress,testresponse_l_J,457,['Longer'],choice-response,Longer,5ffcf97c73cd6e385a5fa726,f300ms_delay_2_86,4316,298,f_maintaskTrials_2_l
5ff0a827571a1af480c17fdc,Empty_filled,0,d4e11846da3abca04d42bf37c13dc16cc049439ebe190eb850892c05b0f1bb69,3976,True,keypress,testresponse_l_J,494,['Longer'],choice-response,Longer,5ffcf97c73cd6e385a5fa726,f300ms_delay_2_56,4714,299,f_maintaskTrials_2_l
5ff0a827571a1af480c17fdc,Empty_filled,0,d4e11846da3abca04d42bf37c13dc16cc049439ebe190eb850892c05b0f1bb69,3976,True,keypress,testresponse_s_F,593,['Shorter'],choice-response,Shorter,5ffcf97c73cd6e385a5fa726,f300ms_delay_2_93,4519,300,f_maintaskTrials_2_s
5ff0a827571a1af480c17fdc,Empty_filled,0,d4e11846da3abca04d42bf37c13dc16cc049439ebe190eb850892c05b0f1bb69,3976,True,keypress,testresponse_l_J,706,['Longer'],choice-response,Longer,5ffcf97c73cd6e385a5fa726,f300ms_delay_2_94,4644,301,f_maintaskTrials_2_l
5ff0a827571a1af480c17fdc,Empty_filled,0,d4e11846da3abca04d42bf37c13dc16cc049439ebe190eb850892c05b0f1bb69,3976,True,keypress,testresponse_s_F,944,['Shorter'],choice-response,Shorter,5ffcf97c73cd6e385a5fa726,f300ms_delay_2_53,4670,302,f_maintaskTrials_2_s
5ff0a827571a1af480c17fdc,Empty_filled,0,d4e11846da3abca04d42bf37c13dc16cc049439ebe190eb850892c05b0f1bb69,3976,False,keypress,testresponse_s_F,784,['Shorter'],choice-response,Longer,5ffcf97c73cd6e385a5fa726,f300ms_delay_2_81,4597,303,f_maintaskTrials_2_s
5ff0a827571a1af480c17fdc,Empty_filled,0,d4e11846da3abca04d42bf37c13dc16cc049439ebe190eb850892c05b0f1bb69,3976,True,keypress,testresponse_l_J,748,['Longer'],choice-response,Longer,5ffcf97c73cd6e385a5fa726,f300ms_delay_2_55,4506,304,f_maintaskTrials_2_l
5ff0a827571a1af480c17fdc,Empty_filled,0,d4e11846da3abca04d42bf37c13dc16cc049439ebe190eb850892c05b0f1bb69,3976,True,keypress,testresponse_l_J,535,['Longer'],choice-response,Longer,5ffcf97c73cd6e385a5fa726,f300ms_delay_2_95,4456,305,f_maintaskTrials_2_l
5ff0a827571a1af480c17fdc,Empty_filled,0,d4e11846da3abca04d42bf37c13dc16cc049439ebe190eb850892c05b0f1bb69,3976,True,keypress,testresponse_s_F,595,['Shorter'],choice-response,Shorter,5ffcf97c73cd6e385a5fa726,f300ms_delay_2_81,4418,306,f_maintaskTrials_2_s
5ff0a827571a1af480c17fdc,Empty_filled,0,d4e11846da3abca04d42bf37c13dc16cc049439ebe190eb850892c05b0f1bb69,3976,False,keypress,testresponse_s_F,414,['Shorter'],choice-response,Longer,5ffcf97c73cd6e385a5fa726,f300ms_delay_2_82,4245,307,f_maintaskTrials_2_s
5ff0a827571a1af480c17fdc,Empty_filled,0,d4e11846da3abca04d42bf37c13dc16cc049439ebe190eb850892c05b0f1bb69,3976,True,keypress,testresponse_s_F,454,['Shorter'],choice-response,Shorter,5ffcf97c73cd6e385a5fa726,f300ms_delay_2_52,4194,308,f_maintaskTrials_2_s
5ff0a827571a1af480c17fdc,Empty_filled,0,d4e11846da3abca04d42bf37c13dc16cc049439ebe190eb850892c05b0f1bb69,3976,False,keypress,testresponse_s_F,503,['Shorter'],choice-response,Longer,5ffcf97c73cd6e385a5fa726,f300ms_delay_2_83,4335,309,f_maintaskTrials_2_s
5ff0a827571a1af480c17fdc,Empty_filled,0,d4e11846da3abca04d42bf37c13dc16cc049439ebe190eb850892c05b0f1bb69,3976,True,keypress,testresponse_s_F,2153,['Shorter'],choice-response,Shorter,5ffcf97c73cd6e385a5fa726,f300ms_delay_2_92,6063,310,f_maintaskTrials_2_s
5ff0a827571a1af480c17fdc,Empty_filled,0,d4e11846da3abca04d42bf37c13dc16cc049439ebe190eb850892c05b0f1bb69,3976,True,keypress,testresponse_s_F,504,['Shorter'],choice-response,Shorter,5ffcf97c73cd6e385a5fa726,f300ms_delay_2_53,4244,311,f_maintaskTrials_2_s
5ff0a827571a1af480c17fdc,Empty_filled,0,d4e11846da3abca04d42bf37c13dc16cc049439ebe190eb850892c05b0f1bb69,3976,True,keypress,testresponse_l_J,1434,['Longer'],choice-response,Longer,5ffcf97c73cd6e385a5fa726,f300ms_delay_2_96,5877,312,f_maintaskTrials_2_l
5ff0a827571a1af480c17fdc,Empty_filled,0,d4e11846da3abca04d42bf37c13dc16cc049439ebe190eb850892c05b0f1bb69,3976,True,keypress,testresponse_l_J,522,['Longer'],choice-response,Longer,5ffcf97c73cd6e385a5fa726,f300ms_delay_2_84,4368,313,f_maintaskTrials_2_l
5ff0a827571a1af480c17fdc,Empty_filled,0,d4e11846da3abca04d42bf37c13dc16cc049439ebe190eb850892c05b0f1bb69,3976,False,keypress,testresponse_l_J,331,['Longer'],choice-response,Shorter,5ffcf97c73cd6e385a5fa726,f300ms_delay_2_54,4080,314,f_maintaskTrials_2_l
5ff0a827571a1af480c17fdc,Empty_filled,0,d4e11846da3abca04d42bf37c13dc16cc049439ebe190eb850892c05b0f1bb69,3976,False,keypress,testresponse_l_J,762,['Longer'],choice-response,Shorter,5ffcf97c73cd6e385a5fa726,f300ms_delay_2_85,4629,315,f_maintaskTrials_2_l
5ff0a827571a1af480c17fdc,Empty_filled,0,d4e11846da3abca04d42bf37c13dc16cc049439ebe190eb850892c05b0f1bb69,3976,True,keypress,testresponse_l_J,447,['Longer'],choice-response,Longer,5ffcf97c73cd6e385a5fa726,f300ms_delay_2_86,4777,316,f_maintaskTrials_2_l
5ff0a827571a1af480c17fdc,Empty_filled,0,d4e11846da3abca04d42bf37c13dc16cc049439ebe190eb850892c05b0f1bb69,3976,False,keypress,testresponse_l_J,790,['Longer'],choice-response,Shorter,5ffcf97c73cd6e385a5fa726,f300ms_delay_2_55,4557,317,f_maintaskTrials_2_l
5ff0a827571a1af480c17fdc,Empty_filled,0,d4e11846da3abca04d42bf37c13dc16cc049439ebe190eb850892c05b0f1bb69,3976,False,keypress,testresponse_s_F,1051,['Shorter'],choice-response,Longer,5ffcf97c73cd6e385a5fa726,f300ms_delay_2_93,5072,318,f_maintaskTrials_2_s
5ff0a827571a1af480c17fdc,Empty_filled,0,d4e11846da3abca04d42bf37c13dc16cc049439ebe190eb850892c05b0f1bb69,3976,False,keypress,testresponse_s_F,1164,['Shorter'],choice-response,Longer,5ffcf97c73cd6e385a5fa726,f300ms_delay_2_91,5542,319,f_maintaskTrials_2_s
5ff0a827571a1af480c17fdc,Empty_filled,0,d4e11846da3abca04d42bf37c13dc16cc049439ebe190eb850892c05b0f1bb69,3976,True,keypress,testresponse_l_J,455,['Longer'],choice-response,Longer,5ffcf97c73cd6e385a5fa726,f300ms_delay_2_56,4247,320,f_maintaskTrials_2_l
5ff0a827571a1af480c17fdc,Empty_filled,0,d4e11846da3abca04d42bf37c13dc16cc049439ebe190eb850892c05b0f1bb69,3976,True,keypress,testresponse_s_F,372,['Shorter'],choice-response,Shorter,5ffcf97c73cd6e385a5fa726,f300ms_delay_2_51,4128,321,f_maintaskTrials_2_s
5ff0a827571a1af480c17fdc,Empty_filled,0,d4e11846da3abca04d42bf37c13dc16cc049439ebe190eb850892c05b0f1bb69,3976,True,keypress,testresponse_l_J,414,['Longer'],choice-response,Longer,5ffcf97c73cd6e385a5fa726,f300ms_delay_2_94,4642,322,f_maintaskTrials_2_l
5ff0a827571a1af480c17fdc,Empty_filled,0,d4e11846da3abca04d42bf37c13dc16cc049439ebe190eb850892c05b0f1bb69,3976,False,keypress,testresponse_s_F,450,['Shorter'],choice-response,Longer,5ffcf97c73cd6e385a5fa726,f300ms_delay_2_93,4423,323,f_maintaskTrials_2_s
5ff0a827571a1af480c17fdc,Empty_filled,0,d4e11846da3abca04d42bf37c13dc16cc049439ebe190eb850892c05b0f1bb69,3976,True,keypress,testresponse_s_F,556,['Shorter'],choice-response,Shorter,5ffcf97c73cd6e385a5fa726,f300ms_delay_2_91,4503,324,f_maintaskTrials_2_s
5ff0a827571a1af480c17fdc,Empty_filled,0,d4e11846da3abca04d42bf37c13dc16cc049439ebe190eb850892c05b0f1bb69,3976,True,keypress,testresponse_s_F,275,['Shorter'],choice-response,Shorter,5ffcf97c73cd6e385a5fa726,f300ms_delay_2_51,4336,325,f_maintaskTrials_2_s
5ff0a827571a1af480c17fdc,Empty_filled,0,d4e11846da3abca04d42bf37c13dc16cc049439ebe190eb850892c05b0f1bb69,3976,True,keypress,testresponse_s_F,306,['Shorter'],choice-response,Shorter,5ffcf97c73cd6e385a5fa726,f300ms_delay_2_53,4078,326,f_maintaskTrials_2_s
5ff0a827571a1af480c17fdc,Empty_filled,0,d4e11846da3abca04d42bf37c13dc16cc049439ebe190eb850892c05b0f1bb69,3976,False,keypress,testresponse_s_F,455,['Shorter'],choice-response,Longer,5ffcf97c73cd6e385a5fa726,f300ms_delay_2_83,4295,327,f_maintaskTrials_2_s
5ff0a827571a1af480c17fdc,Empty_filled,0,d4e11846da3abca04d42bf37c13dc16cc049439ebe190eb850892c05b0f1bb69,3976,True,keypress,testresponse_s_F,564,['Shorter'],choice-response,Shorter,5ffcf97c73cd6e385a5fa726,f300ms_delay_2_82,4402,328,f_maintaskTrials_2_s
5ff0a827571a1af480c17fdc,Empty_filled,0,d4e11846da3abca04d42bf37c13dc16cc049439ebe190eb850892c05b0f1bb69,3976,True,keypress,testresponse_l_J,436,['Longer'],choice-response,Longer,5ffcf97c73cd6e385a5fa726,f300ms_delay_2_54,4190,329,f_maintaskTrials_2_l
5ff0a827571a1af480c17fdc,Empty_filled,0,d4e11846da3abca04d42bf37c13dc16cc049439ebe190eb850892c05b0f1bb69,3976,True,keypress,testresponse_l_J,470,['Longer'],choice-response,Longer,5ffcf97c73cd6e385a5fa726,f300ms_delay_2_85,4318,330,f_maintaskTrials_2_l
5ff0a827571a1af480c17fdc,Empty_filled,0,d4e11846da3abca04d42bf37c13dc16cc049439ebe190eb850892c05b0f1bb69,3976,True,keypress,testresponse_l_J,449,['Longer'],choice-response,Longer,5ffcf97c73cd6e385a5fa726,f300ms_delay_2_95,4385,331,f_maintaskTrials_2_l
5ff0a827571a1af480c17fdc,Empty_filled,0,d4e11846da3abca04d42bf37c13dc16cc049439ebe190eb850892c05b0f1bb69,3976,False,keypress,testresponse_s_F,750,['Shorter'],choice-response,Longer,5ffcf97c73cd6e385a5fa726,f300ms_delay_2_52,4495,332,f_maintaskTrials_2_s
5ff0a827571a1af480c17fdc,Empty_filled,0,d4e11846da3abca04d42bf37c13dc16cc049439ebe190eb850892c05b0f1bb69,3976,True,keypress,testresponse_l_J,423,['Longer'],choice-response,Longer,5ffcf97c73cd6e385a5fa726,f300ms_delay_2_86,4329,333,f_maintaskTrials_2_l
5ff0a827571a1af480c17fdc,Empty_filled,0,d4e11846da3abca04d42bf37c13dc16cc049439ebe190eb850892c05b0f1bb69,3976,True,keypress,testresponse_l_J,454,['Longer'],choice-response,Longer,5ffcf97c73cd6e385a5fa726,f300ms_delay_2_55,4222,334,f_maintaskTrials_2_l
5ff0a827571a1af480c17fdc,Empty_filled,0,d4e11846da3abca04d42bf37c13dc16cc049439ebe190eb850892c05b0f1bb69,3976,True,keypress,testresponse_l_J,531,['Longer'],choice-response,Longer,5ffcf97c73cd6e385a5fa726,f300ms_delay_2_84,4388,335,f_maintaskTrials_2_l
5ff0a827571a1af480c17fdc,Empty_filled,0,d4e11846da3abca04d42bf37c13dc16cc049439ebe190eb850892c05b0f1bb69,3976,True,keypress,testresponse_l_J,459,['Longer'],choice-response,Longer,5ffcf97c73cd6e385a5fa726,f300ms_delay_2_96,4410,336,f_maintaskTrials_2_l
5ff0a827571a1af480c17fdc,Empty_filled,0,d4e11846da3abca04d42bf37c13dc16cc049439ebe190eb850892c05b0f1bb69,3976,True,keypress,testresponse_l_J,556,['Longer'],choice-response,Longer,5ffcf97c73cd6e385a5fa726,f300ms_delay_2_94,4490,337,f_maintaskTrials_2_l
5ff0a827571a1af480c17fdc,Empty_filled,0,d4e11846da3abca04d42bf37c13dc16cc049439ebe190eb850892c05b0f1bb69,3976,True,keypress,testresponse_l_J,578,['Longer'],choice-response,Longer,5ffcf97c73cd6e385a5fa726,f300ms_delay_2_56,4366,338,f_maintaskTrials_2_l
5ff0a827571a1af480c17fdc,Empty_filled,0,d4e11846da3abca04d42bf37c13dc16cc049439ebe190eb850892c05b0f1bb69,3976,False,keypress,testresponse_s_F,1063,['Shorter'],choice-response,Longer,5ffcf97c73cd6e385a5fa726,f300ms_delay_2_81,4882,339,f_maintaskTrials_2_s
5ff0a827571a1af480c17fdc,Empty_filled,0,d4e11846da3abca04d42bf37c13dc16cc049439ebe190eb850892c05b0f1bb69,3976,True,keypress,testresponse_s_F,564,['Shorter'],choice-response,Shorter,5ffcf97c73cd6e385a5fa726,f300ms_delay_2_92,4517,340,f_maintaskTrials_2_s
5ff0a827571a1af480c17fdc,Empty_filled,0,d4e11846da3abca04d42bf37c13dc16cc049439ebe190eb850892c05b0f1bb69,3976,True,keypress,testresponse_l_J,507,['Longer'],choice-response,Longer,5ffcf97c73cd6e385a5fa726,f300ms_delay_2_95,4458,341,f_maintaskTrials_2_l
5ff0a827571a1af480c17fdc,Empty_filled,0,d4e11846da3abca04d42bf37c13dc16cc049439ebe190eb850892c05b0f1bb69,3976,True,keypress,testresponse_l_J,462,['Longer'],choice-response,Longer,5ffcf97c73cd6e385a5fa726,f300ms_delay_2_54,4225,342,f_maintaskTrials_2_l
5ff0a827571a1af480c17fdc,Empty_filled,0,d4e11846da3abca04d42bf37c13dc16cc049439ebe190eb850892c05b0f1bb69,3976,True,keypress,testresponse_l_J,538,['Longer'],choice-response,Longer,5ffcf97c73cd6e385a5fa726,f300ms_delay_2_84,4391,343,f_maintaskTrials_2_l
5ff0a827571a1af480c17fdc,Empty_filled,0,d4e11846da3abca04d42bf37c13dc16cc049439ebe190eb850892c05b0f1bb69,3976,True,keypress,testresponse_l_J,477,['Longer'],choice-response,Longer,5ffcf97c73cd6e385a5fa726,f300ms_delay_2_55,4243,344,f_maintaskTrials_2_l
5ff0a827571a1af480c17fdc,Empty_filled,0,d4e11846da3abca04d42bf37c13dc16cc049439ebe190eb850892c05b0f1bb69,3976,True,keypress,testresponse_l_J,520,['Longer'],choice-response,Longer,5ffcf97c73cd6e385a5fa726,f300ms_delay_2_96,4974,345,f_maintaskTrials_2_l
5ff0a827571a1af480c17fdc,Empty_filled,0,d4e11846da3abca04d42bf37c13dc16cc049439ebe190eb850892c05b0f1bb69,3976,False,keypress,testresponse_s_F,1039,['Shorter'],choice-response,Longer,5ffcf97c73cd6e385a5fa726,f300ms_delay_2_83,4864,346,f_maintaskTrials_2_s
5ff0a827571a1af480c17fdc,Empty_filled,0,d4e11846da3abca04d42bf37c13dc16cc049439ebe190eb850892c05b0f1bb69,3976,False,keypress,testresponse_s_F,464,['Shorter'],choice-response,Longer,5ffcf97c73cd6e385a5fa726,f300ms_delay_2_53,4231,347,f_maintaskTrials_2_s
5ff0a827571a1af480c17fdc,Empty_filled,0,d4e11846da3abca04d42bf37c13dc16cc049439ebe190eb850892c05b0f1bb69,3976,True,keypress,testresponse_l_J,383,['Longer'],choice-response,Longer,5ffcf97c73cd6e385a5fa726,f300ms_delay_2_56,4150,348,f_maintaskTrials_2_l
5ff0a827571a1af480c17fdc,Empty_filled,0,d4e11846da3abca04d42bf37c13dc16cc049439ebe190eb850892c05b0f1bb69,3976,True,keypress,testresponse_s_F,571,['Shorter'],choice-response,Shorter,5ffcf97c73cd6e385a5fa726,f300ms_delay_2_51,4302,349,f_maintaskTrials_2_s
5ff0a827571a1af480c17fdc,Empty_filled,0,d4e11846da3abca04d42bf37c13dc16cc049439ebe190eb850892c05b0f1bb69,3976,False,keypress,testresponse_l_J,1147,['Longer'],choice-response,Shorter,5ffcf97c73cd6e385a5fa726,f300ms_delay_2_85,4994,350,f_maintaskTrials_2_l
5ff0a827571a1af480c17fdc,Empty_filled,0,d4e11846da3abca04d42bf37c13dc16cc049439ebe190eb850892c05b0f1bb69,3976,False,keypress,testresponse_s_F,461,['Shorter'],choice-response,Longer,5ffcf97c73cd6e385a5fa726,f300ms_delay_2_91,4368,351,f_maintaskTrials_2_s
5ff0a827571a1af480c17fdc,Empty_filled,0,d4e11846da3abca04d42bf37c13dc16cc049439ebe190eb850892c05b0f1bb69,3976,True,keypress,testresponse_s_F,487,['Shorter'],choice-response,Shorter,5ffcf97c73cd6e385a5fa726,f300ms_delay_2_93,4412,352,f_maintaskTrials_2_s
5ff0a827571a1af480c17fdc,Empty_filled,0,d4e11846da3abca04d42bf37c13dc16cc049439ebe190eb850892c05b0f1bb69,3976,True,keypress,testresponse_l_J,345,['Longer'],choice-response,Longer,5ffcf97c73cd6e385a5fa726,f300ms_delay_2_86,4693,353,f_maintaskTrials_2_l
5ff0a827571a1af480c17fdc,Empty_filled,0,d4e11846da3abca04d42bf37c13dc16cc049439ebe190eb850892c05b0f1bb69,3976,True,keypress,testresponse_s_F,632,['Shorter'],choice-response,Shorter,5ffcf97c73cd6e385a5fa726,f300ms_delay_2_92,4557,354,f_maintaskTrials_2_s
5ff0a827571a1af480c17fdc,Empty_filled,0,d4e11846da3abca04d42bf37c13dc16cc049439ebe190eb850892c05b0f1bb69,3976,True,keypress,testresponse_s_F,523,['Shorter'],choice-response,Shorter,5ffcf97c73cd6e385a5fa726,f300ms_delay_2_81,4309,355,f_maintaskTrials_2_s
5ff0a827571a1af480c17fdc,Empty_filled,0,d4e11846da3abca04d42bf37c13dc16cc049439ebe190eb850892c05b0f1bb69,3976,True,keypress,testresponse_s_F,433,['Shorter'],choice-response,Shorter,5ffcf97c73cd6e385a5fa726,f300ms_delay_2_52,4187,356,f_maintaskTrials_2_s
5ff0a827571a1af480c17fdc,Empty_filled,0,d4e11846da3abca04d42bf37c13dc16cc049439ebe190eb850892c05b0f1bb69,3976,True,keypress,testresponse_l_J,379,['Longer'],choice-response,Longer,5ffcf97c73cd6e385a5fa726,f300ms_delay_2_94,4798,357,f_maintaskTrials_2_l
5ff0a827571a1af480c17fdc,Empty_filled,0,d4e11846da3abca04d42bf37c13dc16cc049439ebe190eb850892c05b0f1bb69,3976,True,keypress,testresponse_s_F,346,['Shorter'],choice-response,Shorter,5ffcf97c73cd6e385a5fa726,f300ms_delay_2_82,4205,358,f_maintaskTrials_2_s
5ff0a827571a1af480c17fdc,Empty_filled,0,d4e11846da3abca04d42bf37c13dc16cc049439ebe190eb850892c05b0f1bb69,3976,True,keypress,testresponse_l_J,514,['Longer'],choice-response,Longer,5ffcf97c73cd6e385a5fa726,f300ms_delay_2_84,5387,359,f_maintaskTrials_2_l
5ff0a827571a1af480c17fdc,Empty_filled,0,d4e11846da3abca04d42bf37c13dc16cc049439ebe190eb850892c05b0f1bb69,3976,False,keypress,testresponse_s_F,1314,['Shorter'],choice-response,Longer,5ffcf97c73cd6e385a5fa726,f300ms_delay_2_83,5190,360,f_maintaskTrials_2_s
5ff0a827571a1af480c17fdc,Empty_filled,0,d4e11846da3abca04d42bf37c13dc16cc049439ebe190eb850892c05b0f1bb69,3976,True,keypress,testresponse_s_F,509,['Shorter'],choice-response,Shorter,5ffcf97c73cd6e385a5fa726,f300ms_delay_2_52,4762,361,f_maintaskTrials_2_s
5ff0a827571a1af480c17fdc,Empty_filled,0,d4e11846da3abca04d42bf37c13dc16cc049439ebe190eb850892c05b0f1bb69,3976,True,keypress,testresponse_l_J,435,['Longer'],choice-response,Longer,5ffcf97c73cd6e385a5fa726,f300ms_delay_2_96,4429,362,f_maintaskTrials_2_l
5ff0a827571a1af480c17fdc,Empty_filled,0,d4e11846da3abca04d42bf37c13dc16cc049439ebe190eb850892c05b0f1bb69,3976,True,keypress,testresponse_s_F,436,['Shorter'],choice-response,Shorter,5ffcf97c73cd6e385a5fa726,f300ms_delay_2_91,4376,363,f_maintaskTrials_2_s
5ff0a827571a1af480c17fdc,Empty_filled,0,d4e11846da3abca04d42bf37c13dc16cc049439ebe190eb850892c05b0f1bb69,3976,True,keypress,testresponse_l_J,363,['Longer'],choice-response,Longer,5ffcf97c73cd6e385a5fa726,f300ms_delay_2_86,4238,364,f_maintaskTrials_2_l
5ff0a827571a1af480c17fdc,Empty_filled,0,d4e11846da3abca04d42bf37c13dc16cc049439ebe190eb850892c05b0f1bb69,3976,True,keypress,testresponse_l_J,533,['Longer'],choice-response,Longer,5ffcf97c73cd6e385a5fa726,f300ms_delay_2_95,4719,365,f_maintaskTrials_2_l
5ff0a827571a1af480c17fdc,Empty_filled,0,d4e11846da3abca04d42bf37c13dc16cc049439ebe190eb850892c05b0f1bb69,3976,True,keypress,testresponse_s_F,1001,['Shorter'],choice-response,Shorter,5ffcf97c73cd6e385a5fa726,f300ms_delay_2_92,4943,366,f_maintaskTrials_2_s
5ff0a827571a1af480c17fdc,Empty_filled,0,d4e11846da3abca04d42bf37c13dc16cc049439ebe190eb850892c05b0f1bb69,3976,True,keypress,testresponse_s_F,485,['Shorter'],choice-response,Shorter,5ffcf97c73cd6e385a5fa726,f300ms_delay_2_82,4335,367,f_maintaskTrials_2_s
5ff0a827571a1af480c17fdc,Empty_filled,0,d4e11846da3abca04d42bf37c13dc16cc049439ebe190eb850892c05b0f1bb69,3976,False,keypress,testresponse_l_J,479,['Longer'],choice-response,Shorter,5ffcf97c73cd6e385a5fa726,f300ms_delay_2_54,4300,368,f_maintaskTrials_2_l
5ff0a827571a1af480c17fdc,Empty_filled,0,d4e11846da3abca04d42bf37c13dc16cc049439ebe190eb850892c05b0f1bb69,3976,True,keypress,testresponse_s_F,195,['Shorter'],choice-response,Shorter,5ffcf97c73cd6e385a5fa726,f300ms_delay_2_51,4377,369,f_maintaskTrials_2_s
5ff0a827571a1af480c17fdc,Empty_filled,0,d4e11846da3abca04d42bf37c13dc16cc049439ebe190eb850892c05b0f1bb69,3976,True,keypress,testresponse_l_J,351,['Longer'],choice-response,Longer,5ffcf97c73cd6e385a5fa726,f300ms_delay_2_94,4334,370,f_maintaskTrials_2_l
5ff0a827571a1af480c17fdc,Empty_filled,0,d4e11846da3abca04d42bf37c13dc16cc049439ebe190eb850892c05b0f1bb69,3976,True,keypress,testresponse_l_J,604,['Longer'],choice-response,Longer,5ffcf97c73cd6e385a5fa726,f300ms_delay_2_56,4399,371,f_maintaskTrials_2_l
5ff0a827571a1af480c17fdc,Empty_filled,0,d4e11846da3abca04d42bf37c13dc16cc049439ebe190eb850892c05b0f1bb69,3976,True,keypress,testresponse_s_F,621,['Shorter'],choice-response,Shorter,5ffcf97c73cd6e385a5fa726,f300ms_delay_2_81,4473,372,f_maintaskTrials_2_s
5ff0a827571a1af480c17fdc,Empty_filled,0,d4e11846da3abca04d42bf37c13dc16cc049439ebe190eb850892c05b0f1bb69,3976,True,keypress,testresponse_l_J,841,['Longer'],choice-response,Longer,5ffcf97c73cd6e385a5fa726,f300ms_delay_2_85,5203,373,f_maintaskTrials_2_l
5ff0a827571a1af480c17fdc,Empty_filled,0,d4e11846da3abca04d42bf37c13dc16cc049439ebe190eb850892c05b0f1bb69,3976,True,keypress,testresponse_l_J,2024,['Longer'],choice-response,Longer,5ffcf97c73cd6e385a5fa726,f300ms_delay_2_55,5793,374,f_maintaskTrials_2_l
5ff0a827571a1af480c17fdc,Empty_filled,0,d4e11846da3abca04d42bf37c13dc16cc049439ebe190eb850892c05b0f1bb69,3976,True,keypress,testresponse_s_F,656,['Shorter'],choice-response,Shorter,5ffcf97c73cd6e385a5fa726,f300ms_delay_2_93,4625,375,f_maintaskTrials_2_s
5ff0a827571a1af480c17fdc,Empty_filled,0,d4e11846da3abca04d42bf37c13dc16cc049439ebe190eb850892c05b0f1bb69,3976,True,keypress,testresponse_s_F,400,['Shorter'],choice-response,Shorter,5ffcf97c73cd6e385a5fa726,f300ms_delay_2_53,4165,376,f_maintaskTrials_2_s
5ff0a827571a1af480c17fdc,Empty_filled,0,d4e11846da3abca04d42bf37c13dc16cc049439ebe190eb850892c05b0f1bb69,3976,True,keypress,testresponse_s_F,781,['Shorter'],choice-response,Shorter,5ffcf97c73cd6e385a5fa726,f300ms_delay_2_52,4541,377,f_maintaskTrials_2_s
5ff0a827571a1af480c17fdc,Empty_filled,0,d4e11846da3abca04d42bf37c13dc16cc049439ebe190eb850892c05b0f1bb69,3976,True,keypress,testresponse_l_J,265,['Longer'],choice-response,Longer,5ffcf97c73cd6e385a5fa726,f300ms_delay_2_95,4676,378,f_maintaskTrials_2_l
5ff0a827571a1af480c17fdc,Empty_filled,0,d4e11846da3abca04d42bf37c13dc16cc049439ebe190eb850892c05b0f1bb69,3976,True,keypress,testresponse_s_F,293,['Shorter'],choice-response,Shorter,5ffcf97c73cd6e385a5fa726,f300ms_delay_2_53,4068,379,f_maintaskTrials_2_s
5ff0a827571a1af480c17fdc,Empty_filled,0,d4e11846da3abca04d42bf37c13dc16cc049439ebe190eb850892c05b0f1bb69,3976,False,keypress,testresponse_s_F,1108,['Shorter'],choice-response,Longer,5ffcf97c73cd6e385a5fa726,f300ms_delay_2_93,5487,380,f_maintaskTrials_2_s
5ff0a827571a1af480c17fdc,Empty_filled,0,d4e11846da3abca04d42bf37c13dc16cc049439ebe190eb850892c05b0f1bb69,3976,True,keypress,testresponse_l_J,677,['Longer'],choice-response,Longer,5ffcf97c73cd6e385a5fa726,f300ms_delay_2_86,4578,381,f_maintaskTrials_2_l
5ff0a827571a1af480c17fdc,Empty_filled,0,d4e11846da3abca04d42bf37c13dc16cc049439ebe190eb850892c05b0f1bb69,3976,True,keypress,testresponse_l_J,503,['Longer'],choice-response,Longer,5ffcf97c73cd6e385a5fa726,f300ms_delay_2_85,4395,382,f_maintaskTrials_2_l
5ff0a827571a1af480c17fdc,Empty_filled,0,d4e11846da3abca04d42bf37c13dc16cc049439ebe190eb850892c05b0f1bb69,3976,False,keypress,testresponse_s_F,484,['Shorter'],choice-response,Longer,5ffcf97c73cd6e385a5fa726,f300ms_delay_2_92,4715,383,f_maintaskTrials_2_s
5ff0a827571a1af480c17fdc,Empty_filled,0,d4e11846da3abca04d42bf37c13dc16cc049439ebe190eb850892c05b0f1bb69,3976,True,keypress,testresponse_s_F,317,['Shorter'],choice-response,Shorter,5ffcf97c73cd6e385a5fa726,f300ms_delay_2_91,4249,384,f_maintaskTrials_2_s
5ff0a827571a1af480c17fdc,Empty_filled,0,d4e11846da3abca04d42bf37c13dc16cc049439ebe190eb850892c05b0f1bb69,3976,True,keypress,testresponse_s_F,834,['Shorter'],choice-response,Shorter,5ffcf97c73cd6e385a5fa726,f300ms_delay_2_81,4667,385,f_maintaskTrials_2_s
5ff0a827571a1af480c17fdc,Empty_filled,0,d4e11846da3abca04d42bf37c13dc16cc049439ebe190eb850892c05b0f1bb69,3976,True,keypress,testresponse_s_F,2101,['Shorter'],choice-response,Shorter,5ffcf97c73cd6e385a5fa726,f300ms_delay_2_83,5971,386,f_maintaskTrials_2_s
5ff0a827571a1af480c17fdc,Empty_filled,0,d4e11846da3abca04d42bf37c13dc16cc049439ebe190eb850892c05b0f1bb69,3976,True,keypress,testresponse_l_J,357,['Longer'],choice-response,Longer,5ffcf97c73cd6e385a5fa726,f300ms_delay_2_84,4206,387,f_maintaskTrials_2_l
5ff0a827571a1af480c17fdc,Empty_filled,0,d4e11846da3abca04d42bf37c13dc16cc049439ebe190eb850892c05b0f1bb69,3976,True,keypress,testresponse_l_J,479,['Longer'],choice-response,Longer,5ffcf97c73cd6e385a5fa726,f300ms_delay_2_94,4454,388,f_maintaskTrials_2_l
5ff0a827571a1af480c17fdc,Empty_filled,0,d4e11846da3abca04d42bf37c13dc16cc049439ebe190eb850892c05b0f1bb69,3976,True,keypress,testresponse_l_J,540,['Longer'],choice-response,Longer,5ffcf97c73cd6e385a5fa726,f300ms_delay_2_54,4337,389,f_maintaskTrials_2_l
5ff0a827571a1af480c17fdc,Empty_filled,0,d4e11846da3abca04d42bf37c13dc16cc049439ebe190eb850892c05b0f1bb69,3976,False,keypress,testresponse_l_J,421,['Longer'],choice-response,Shorter,5ffcf97c73cd6e385a5fa726,f300ms_delay_2_55,4211,390,f_maintaskTrials_2_l
5ff0a827571a1af480c17fdc,Empty_filled,0,d4e11846da3abca04d42bf37c13dc16cc049439ebe190eb850892c05b0f1bb69,3976,False,keypress,testresponse_s_F,942,['Shorter'],choice-response,Longer,5ffcf97c73cd6e385a5fa726,f300ms_delay_2_51,4682,391,f_maintaskTrials_2_s
5ff0a827571a1af480c17fdc,Empty_filled,0,d4e11846da3abca04d42bf37c13dc16cc049439ebe190eb850892c05b0f1bb69,3976,False,keypress,testresponse_l_J,4041,['Longer'],choice-response,Shorter,5ffcf97c73cd6e385a5fa726,f300ms_delay_2_56,7828,392,f_maintaskTrials_2_l
