expt_id,group_id,network_error_repeat,participant_id,participation_duration,response_correct,response_mode,response_name,response_rt,response_target,response_type,response_value,session_id,stimuli_presented,trial_duration,trial_num,trial_template
5ff0a827571a1af480c17fdc,Filled_empty,0,9254f32e77181c50ae514138bb57bbda3f192660754a01bb696b934ae71776c0,2939,False,click,survey_noise,5372,[],choice-response,2,6007b9b68ffa26e0d13be3ad,logistics_noise,6492,1,logisticsQuestionnaire
5ff0a827571a1af480c17fdc,Filled_empty,0,9254f32e77181c50ae514138bb57bbda3f192660754a01bb696b934ae71776c0,2939,False,click,survey_headphone,8054,[],choice-response,Wireless Earbuds,6007b9b68ffa26e0d13be3ad,logistic_headphone,9472,2,logisticsQuestionnaire
5ff0a827571a1af480c17fdc,Filled_empty,0,9254f32e77181c50ae514138bb57bbda3f192660754a01bb696b934ae71776c0,2939,True,keypress,exampleresponse_s_F,9415,['Shorter'],choice-response,Shorter,6007b9b68ffa26e0d13be3ad,f300ms_short,16214,3,f_example_s
5ff0a827571a1af480c17fdc,Filled_empty,0,9254f32e77181c50ae514138bb57bbda3f192660754a01bb696b934ae71776c0,2939,True,keypress,exampleresponse_l_J,811,['Longer'],choice-response,Longer,6007b9b68ffa26e0d13be3ad,f300ms_long,8135,4,f_example_l
5ff0a827571a1af480c17fdc,Filled_empty,0,9254f32e77181c50ae514138bb57bbda3f192660754a01bb696b934ae71776c0,2939,True,keypress,exampleresponse_s_F,1173,['Shorter'],choice-response,Shorter,6007b9b68ffa26e0d13be3ad,f300ms_short,7714,5,f_example_s
5ff0a827571a1af480c17fdc,Filled_empty,0,9254f32e77181c50ae514138bb57bbda3f192660754a01bb696b934ae71776c0,2939,True,keypress,exampleresponse_l_J,1180,['Longer'],choice-response,Longer,6007b9b68ffa26e0d13be3ad,f300ms_long,8476,6,f_example_l
5ff0a827571a1af480c17fdc,Filled_empty,0,9254f32e77181c50ae514138bb57bbda3f192660754a01bb696b934ae71776c0,2939,True,keypress,practiceresponse_l_J,1769,['Longer'],choice-response,Longer,6007b9b68ffa26e0d13be3ad,f300ms_delay_2_86,8990,7,f_practiceTrials_l
5ff0a827571a1af480c17fdc,Filled_empty,0,9254f32e77181c50ae514138bb57bbda3f192660754a01bb696b934ae71776c0,2939,False,keypress,practiceresponse_s_F,1768,['Shorter'],choice-response,Longer,6007b9b68ffa26e0d13be3ad,f300ms_delay_2_81,8899,8,f_practiceTrials_s
5ff0a827571a1af480c17fdc,Filled_empty,0,9254f32e77181c50ae514138bb57bbda3f192660754a01bb696b934ae71776c0,2939,True,keypress,practiceresponse_l_J,1803,['Longer'],choice-response,Longer,6007b9b68ffa26e0d13be3ad,f300ms_delay_2_86,9029,9,f_practiceTrials_l
5ff0a827571a1af480c17fdc,Filled_empty,0,9254f32e77181c50ae514138bb57bbda3f192660754a01bb696b934ae71776c0,2939,False,keypress,practiceresponse_s_F,795,['Shorter'],choice-response,Longer,6007b9b68ffa26e0d13be3ad,f300ms_delay_2_81,7919,10,f_practiceTrials_s
5ff0a827571a1af480c17fdc,Filled_empty,0,9254f32e77181c50ae514138bb57bbda3f192660754a01bb696b934ae71776c0,2939,False,keypress,practiceresponse_s_F,1434,['Shorter'],choice-response,Longer,6007b9b68ffa26e0d13be3ad,f300ms_delay_2_81,8842,11,f_practiceTrials_s
5ff0a827571a1af480c17fdc,Filled_empty,0,9254f32e77181c50ae514138bb57bbda3f192660754a01bb696b934ae71776c0,2939,False,keypress,practiceresponse_l_J,3725,['Longer'],choice-response,Shorter,6007b9b68ffa26e0d13be3ad,f300ms_delay_2_86,11048,12,f_practiceTrials_l
5ff0a827571a1af480c17fdc,Filled_empty,0,9254f32e77181c50ae514138bb57bbda3f192660754a01bb696b934ae71776c0,2939,False,keypress,practiceresponse_s_F,5216,['Shorter'],choice-response,Longer,6007b9b68ffa26e0d13be3ad,f300ms_delay_2_81,12063,13,f_practiceTrials_s
5ff0a827571a1af480c17fdc,Filled_empty,0,9254f32e77181c50ae514138bb57bbda3f192660754a01bb696b934ae71776c0,2939,True,keypress,practiceresponse_l_J,907,['Longer'],choice-response,Longer,6007b9b68ffa26e0d13be3ad,f300ms_delay_2_86,7866,14,f_practiceTrials_l
5ff0a827571a1af480c17fdc,Filled_empty,0,9254f32e77181c50ae514138bb57bbda3f192660754a01bb696b934ae71776c0,2939,False,keypress,practiceresponse_s_F,1794,['Shorter'],choice-response,Longer,6007b9b68ffa26e0d13be3ad,f300ms_delay_2_81,8524,15,f_practiceTrials_s
5ff0a827571a1af480c17fdc,Filled_empty,0,9254f32e77181c50ae514138bb57bbda3f192660754a01bb696b934ae71776c0,2939,True,keypress,practiceresponse_l_J,686,['Longer'],choice-response,Longer,6007b9b68ffa26e0d13be3ad,f300ms_delay_2_86,7395,16,f_practiceTrials_l
5ff0a827571a1af480c17fdc,Filled_empty,0,9254f32e77181c50ae514138bb57bbda3f192660754a01bb696b934ae71776c0,2939,True,keypress,practiceresponse_s_F,1630,['Shorter'],choice-response,Shorter,6007b9b68ffa26e0d13be3ad,f300ms_delay_2_81,8733,17,f_practiceTrials_s
5ff0a827571a1af480c17fdc,Filled_empty,0,9254f32e77181c50ae514138bb57bbda3f192660754a01bb696b934ae71776c0,2939,True,keypress,practiceresponse_l_J,634,['Longer'],choice-response,Longer,6007b9b68ffa26e0d13be3ad,f300ms_delay_2_86,7353,18,f_practiceTrials_l
5ff0a827571a1af480c17fdc,Filled_empty,0,9254f32e77181c50ae514138bb57bbda3f192660754a01bb696b934ae71776c0,2939,True,keypress,testresponse_l_J,793,['Longer'],choice-response,Longer,6007b9b68ffa26e0d13be3ad,f300ms_delay_2_55,4801,19,f_maintaskTrials_2_l
5ff0a827571a1af480c17fdc,Filled_empty,0,9254f32e77181c50ae514138bb57bbda3f192660754a01bb696b934ae71776c0,2939,False,keypress,testresponse_s_F,771,['Shorter'],choice-response,Longer,6007b9b68ffa26e0d13be3ad,f300ms_delay_2_53,4753,20,f_maintaskTrials_2_s
5ff0a827571a1af480c17fdc,Filled_empty,0,9254f32e77181c50ae514138bb57bbda3f192660754a01bb696b934ae71776c0,2939,True,keypress,testresponse_l_J,2015,['Longer'],choice-response,Longer,6007b9b68ffa26e0d13be3ad,f300ms_delay_2_96,6609,21,f_maintaskTrials_2_l
5ff0a827571a1af480c17fdc,Filled_empty,0,9254f32e77181c50ae514138bb57bbda3f192660754a01bb696b934ae71776c0,2939,True,keypress,testresponse_l_J,495,['Longer'],choice-response,Longer,6007b9b68ffa26e0d13be3ad,f300ms_delay_2_54,4592,22,f_maintaskTrials_2_l
5ff0a827571a1af480c17fdc,Filled_empty,0,9254f32e77181c50ae514138bb57bbda3f192660754a01bb696b934ae71776c0,2939,True,keypress,testresponse_l_J,1360,['Longer'],choice-response,Longer,6007b9b68ffa26e0d13be3ad,f300ms_delay_2_95,5953,23,f_maintaskTrials_2_l
5ff0a827571a1af480c17fdc,Filled_empty,0,9254f32e77181c50ae514138bb57bbda3f192660754a01bb696b934ae71776c0,2939,True,keypress,testresponse_l_J,2047,['Longer'],choice-response,Longer,6007b9b68ffa26e0d13be3ad,f300ms_delay_2_84,6500,24,f_maintaskTrials_2_l
5ff0a827571a1af480c17fdc,Filled_empty,0,9254f32e77181c50ae514138bb57bbda3f192660754a01bb696b934ae71776c0,2939,True,keypress,testresponse_l_J,717,['Longer'],choice-response,Longer,6007b9b68ffa26e0d13be3ad,f300ms_delay_2_94,4932,25,f_maintaskTrials_2_l
5ff0a827571a1af480c17fdc,Filled_empty,0,9254f32e77181c50ae514138bb57bbda3f192660754a01bb696b934ae71776c0,2939,False,keypress,testresponse_s_F,2216,['Shorter'],choice-response,Longer,6007b9b68ffa26e0d13be3ad,f300ms_delay_2_52,6224,26,f_maintaskTrials_2_s
5ff0a827571a1af480c17fdc,Filled_empty,0,9254f32e77181c50ae514138bb57bbda3f192660754a01bb696b934ae71776c0,2939,False,keypress,testresponse_s_F,1467,['Shorter'],choice-response,Longer,6007b9b68ffa26e0d13be3ad,f300ms_delay_2_92,6026,27,f_maintaskTrials_2_s
5ff0a827571a1af480c17fdc,Filled_empty,0,9254f32e77181c50ae514138bb57bbda3f192660754a01bb696b934ae71776c0,2939,False,keypress,testresponse_s_F,2320,['Shorter'],choice-response,Longer,6007b9b68ffa26e0d13be3ad,f300ms_delay_2_91,6517,28,f_maintaskTrials_2_s
5ff0a827571a1af480c17fdc,Filled_empty,0,9254f32e77181c50ae514138bb57bbda3f192660754a01bb696b934ae71776c0,2939,False,keypress,testresponse_s_F,742,['Shorter'],choice-response,Longer,6007b9b68ffa26e0d13be3ad,f300ms_delay_2_81,5175,29,f_maintaskTrials_2_s
5ff0a827571a1af480c17fdc,Filled_empty,0,9254f32e77181c50ae514138bb57bbda3f192660754a01bb696b934ae71776c0,2939,True,keypress,testresponse_s_F,477,['Shorter'],choice-response,Shorter,6007b9b68ffa26e0d13be3ad,f300ms_delay_2_51,4437,30,f_maintaskTrials_2_s
5ff0a827571a1af480c17fdc,Filled_empty,0,9254f32e77181c50ae514138bb57bbda3f192660754a01bb696b934ae71776c0,2939,True,keypress,testresponse_l_J,1744,['Longer'],choice-response,Longer,6007b9b68ffa26e0d13be3ad,f300ms_delay_2_56,5802,31,f_maintaskTrials_2_l
5ff0a827571a1af480c17fdc,Filled_empty,0,9254f32e77181c50ae514138bb57bbda3f192660754a01bb696b934ae71776c0,2939,True,keypress,testresponse_s_F,962,['Shorter'],choice-response,Shorter,6007b9b68ffa26e0d13be3ad,f300ms_delay_2_93,5139,32,f_maintaskTrials_2_s
5ff0a827571a1af480c17fdc,Filled_empty,0,9254f32e77181c50ae514138bb57bbda3f192660754a01bb696b934ae71776c0,2939,False,keypress,testresponse_s_F,521,['Shorter'],choice-response,Longer,6007b9b68ffa26e0d13be3ad,f300ms_delay_2_83,4607,33,f_maintaskTrials_2_s
5ff0a827571a1af480c17fdc,Filled_empty,0,9254f32e77181c50ae514138bb57bbda3f192660754a01bb696b934ae71776c0,2939,True,keypress,testresponse_s_F,865,['Shorter'],choice-response,Shorter,6007b9b68ffa26e0d13be3ad,f300ms_delay_2_82,5070,34,f_maintaskTrials_2_s
5ff0a827571a1af480c17fdc,Filled_empty,0,9254f32e77181c50ae514138bb57bbda3f192660754a01bb696b934ae71776c0,2939,False,keypress,testresponse_l_J,1072,['Longer'],choice-response,Shorter,6007b9b68ffa26e0d13be3ad,f300ms_delay_2_85,5210,35,f_maintaskTrials_2_l
5ff0a827571a1af480c17fdc,Filled_empty,0,9254f32e77181c50ae514138bb57bbda3f192660754a01bb696b934ae71776c0,2939,True,keypress,testresponse_l_J,617,['Longer'],choice-response,Longer,6007b9b68ffa26e0d13be3ad,f300ms_delay_2_86,5273,36,f_maintaskTrials_2_l
5ff0a827571a1af480c17fdc,Filled_empty,0,9254f32e77181c50ae514138bb57bbda3f192660754a01bb696b934ae71776c0,2939,True,keypress,testresponse_l_J,702,['Longer'],choice-response,Longer,6007b9b68ffa26e0d13be3ad,f300ms_delay_2_86,5259,37,f_maintaskTrials_2_l
5ff0a827571a1af480c17fdc,Filled_empty,0,9254f32e77181c50ae514138bb57bbda3f192660754a01bb696b934ae71776c0,2939,False,keypress,testresponse_s_F,1445,['Shorter'],choice-response,Longer,6007b9b68ffa26e0d13be3ad,f300ms_delay_2_92,5662,38,f_maintaskTrials_2_s
5ff0a827571a1af480c17fdc,Filled_empty,0,9254f32e77181c50ae514138bb57bbda3f192660754a01bb696b934ae71776c0,2939,False,keypress,testresponse_l_J,948,['Longer'],choice-response,Shorter,6007b9b68ffa26e0d13be3ad,f300ms_delay_2_56,5506,39,f_maintaskTrials_2_l
5ff0a827571a1af480c17fdc,Filled_empty,0,9254f32e77181c50ae514138bb57bbda3f192660754a01bb696b934ae71776c0,2939,True,keypress,testresponse_s_F,1109,['Shorter'],choice-response,Shorter,6007b9b68ffa26e0d13be3ad,f300ms_delay_2_93,5421,40,f_maintaskTrials_2_s
5ff0a827571a1af480c17fdc,Filled_empty,0,9254f32e77181c50ae514138bb57bbda3f192660754a01bb696b934ae71776c0,2939,True,keypress,testresponse_s_F,1113,['Shorter'],choice-response,Shorter,6007b9b68ffa26e0d13be3ad,f300ms_delay_2_53,5303,41,f_maintaskTrials_2_s
5ff0a827571a1af480c17fdc,Filled_empty,0,9254f32e77181c50ae514138bb57bbda3f192660754a01bb696b934ae71776c0,2939,True,keypress,testresponse_l_J,552,['Longer'],choice-response,Longer,6007b9b68ffa26e0d13be3ad,f300ms_delay_2_54,4592,42,f_maintaskTrials_2_l
5ff0a827571a1af480c17fdc,Filled_empty,0,9254f32e77181c50ae514138bb57bbda3f192660754a01bb696b934ae71776c0,2939,True,keypress,testresponse_l_J,727,['Longer'],choice-response,Longer,6007b9b68ffa26e0d13be3ad,f300ms_delay_2_96,5605,43,f_maintaskTrials_2_l
5ff0a827571a1af480c17fdc,Filled_empty,0,9254f32e77181c50ae514138bb57bbda3f192660754a01bb696b934ae71776c0,2939,True,keypress,testresponse_s_F,1043,['Shorter'],choice-response,Shorter,6007b9b68ffa26e0d13be3ad,f300ms_delay_2_82,5191,44,f_maintaskTrials_2_s
5ff0a827571a1af480c17fdc,Filled_empty,0,9254f32e77181c50ae514138bb57bbda3f192660754a01bb696b934ae71776c0,2939,True,keypress,testresponse_s_F,646,['Shorter'],choice-response,Shorter,6007b9b68ffa26e0d13be3ad,f300ms_delay_2_51,4691,45,f_maintaskTrials_2_s
5ff0a827571a1af480c17fdc,Filled_empty,0,9254f32e77181c50ae514138bb57bbda3f192660754a01bb696b934ae71776c0,2939,False,keypress,testresponse_l_J,1414,['Longer'],choice-response,Shorter,6007b9b68ffa26e0d13be3ad,f300ms_delay_2_84,5471,46,f_maintaskTrials_2_l
5ff0a827571a1af480c17fdc,Filled_empty,0,9254f32e77181c50ae514138bb57bbda3f192660754a01bb696b934ae71776c0,2939,False,keypress,testresponse_l_J,505,['Longer'],choice-response,Shorter,6007b9b68ffa26e0d13be3ad,f300ms_delay_2_95,4672,47,f_maintaskTrials_2_l
5ff0a827571a1af480c17fdc,Filled_empty,0,9254f32e77181c50ae514138bb57bbda3f192660754a01bb696b934ae71776c0,2939,False,keypress,testresponse_l_J,866,['Longer'],choice-response,Shorter,6007b9b68ffa26e0d13be3ad,f300ms_delay_2_85,5086,48,f_maintaskTrials_2_l
5ff0a827571a1af480c17fdc,Filled_empty,0,9254f32e77181c50ae514138bb57bbda3f192660754a01bb696b934ae71776c0,2939,True,keypress,testresponse_l_J,312,['Longer'],choice-response,Longer,6007b9b68ffa26e0d13be3ad,f300ms_delay_2_94,4729,49,f_maintaskTrials_2_l
5ff0a827571a1af480c17fdc,Filled_empty,0,9254f32e77181c50ae514138bb57bbda3f192660754a01bb696b934ae71776c0,2939,False,keypress,testresponse_l_J,607,['Longer'],choice-response,Shorter,6007b9b68ffa26e0d13be3ad,f300ms_delay_2_55,4657,50,f_maintaskTrials_2_l
5ff0a827571a1af480c17fdc,Filled_empty,0,9254f32e77181c50ae514138bb57bbda3f192660754a01bb696b934ae71776c0,2939,True,keypress,testresponse_s_F,891,['Shorter'],choice-response,Shorter,6007b9b68ffa26e0d13be3ad,f300ms_delay_2_91,5395,51,f_maintaskTrials_2_s
5ff0a827571a1af480c17fdc,Filled_empty,0,9254f32e77181c50ae514138bb57bbda3f192660754a01bb696b934ae71776c0,2939,True,keypress,testresponse_s_F,815,['Shorter'],choice-response,Shorter,6007b9b68ffa26e0d13be3ad,f300ms_delay_2_83,4906,52,f_maintaskTrials_2_s
5ff0a827571a1af480c17fdc,Filled_empty,0,9254f32e77181c50ae514138bb57bbda3f192660754a01bb696b934ae71776c0,2939,True,keypress,testresponse_s_F,589,['Shorter'],choice-response,Shorter,6007b9b68ffa26e0d13be3ad,f300ms_delay_2_81,4629,53,f_maintaskTrials_2_s
5ff0a827571a1af480c17fdc,Filled_empty,0,9254f32e77181c50ae514138bb57bbda3f192660754a01bb696b934ae71776c0,2939,True,keypress,testresponse_s_F,463,['Shorter'],choice-response,Shorter,6007b9b68ffa26e0d13be3ad,f300ms_delay_2_52,4428,54,f_maintaskTrials_2_s
5ff0a827571a1af480c17fdc,Filled_empty,0,9254f32e77181c50ae514138bb57bbda3f192660754a01bb696b934ae71776c0,2939,True,keypress,testresponse_s_F,487,['Shorter'],choice-response,Shorter,6007b9b68ffa26e0d13be3ad,f300ms_delay_2_82,5925,55,f_maintaskTrials_2_s
5ff0a827571a1af480c17fdc,Filled_empty,0,9254f32e77181c50ae514138bb57bbda3f192660754a01bb696b934ae71776c0,2939,False,keypress,testresponse_l_J,672,['Longer'],choice-response,Shorter,6007b9b68ffa26e0d13be3ad,f300ms_delay_2_55,4954,56,f_maintaskTrials_2_l
5ff0a827571a1af480c17fdc,Filled_empty,0,9254f32e77181c50ae514138bb57bbda3f192660754a01bb696b934ae71776c0,2939,True,keypress,testresponse_l_J,597,['Longer'],choice-response,Longer,6007b9b68ffa26e0d13be3ad,f300ms_delay_2_95,4880,57,f_maintaskTrials_2_l
5ff0a827571a1af480c17fdc,Filled_empty,0,9254f32e77181c50ae514138bb57bbda3f192660754a01bb696b934ae71776c0,2939,False,keypress,testresponse_l_J,891,['Longer'],choice-response,Shorter,6007b9b68ffa26e0d13be3ad,f300ms_delay_2_86,5363,58,f_maintaskTrials_2_l
5ff0a827571a1af480c17fdc,Filled_empty,0,9254f32e77181c50ae514138bb57bbda3f192660754a01bb696b934ae71776c0,2939,True,keypress,testresponse_l_J,1032,['Longer'],choice-response,Longer,6007b9b68ffa26e0d13be3ad,f300ms_delay_2_54,5272,59,f_maintaskTrials_2_l
5ff0a827571a1af480c17fdc,Filled_empty,0,9254f32e77181c50ae514138bb57bbda3f192660754a01bb696b934ae71776c0,2939,False,keypress,testresponse_s_F,1322,['Shorter'],choice-response,Longer,6007b9b68ffa26e0d13be3ad,f300ms_delay_2_51,5441,60,f_maintaskTrials_2_s
5ff0a827571a1af480c17fdc,Filled_empty,0,9254f32e77181c50ae514138bb57bbda3f192660754a01bb696b934ae71776c0,2939,True,keypress,testresponse_l_J,569,['Longer'],choice-response,Longer,6007b9b68ffa26e0d13be3ad,f300ms_delay_2_84,4786,61,f_maintaskTrials_2_l
5ff0a827571a1af480c17fdc,Filled_empty,0,9254f32e77181c50ae514138bb57bbda3f192660754a01bb696b934ae71776c0,2939,True,keypress,testresponse_l_J,457,['Longer'],choice-response,Longer,6007b9b68ffa26e0d13be3ad,f300ms_delay_2_85,4570,62,f_maintaskTrials_2_l
5ff0a827571a1af480c17fdc,Filled_empty,0,9254f32e77181c50ae514138bb57bbda3f192660754a01bb696b934ae71776c0,2939,True,keypress,testresponse_l_J,499,['Longer'],choice-response,Longer,6007b9b68ffa26e0d13be3ad,f300ms_delay_2_94,4659,63,f_maintaskTrials_2_l
5ff0a827571a1af480c17fdc,Filled_empty,0,9254f32e77181c50ae514138bb57bbda3f192660754a01bb696b934ae71776c0,2939,True,keypress,testresponse_s_F,1124,['Shorter'],choice-response,Shorter,6007b9b68ffa26e0d13be3ad,f300ms_delay_2_53,5563,64,f_maintaskTrials_2_s
5ff0a827571a1af480c17fdc,Filled_empty,0,9254f32e77181c50ae514138bb57bbda3f192660754a01bb696b934ae71776c0,2939,True,keypress,testresponse_s_F,879,['Shorter'],choice-response,Shorter,6007b9b68ffa26e0d13be3ad,f300ms_delay_2_52,4843,65,f_maintaskTrials_2_s
5ff0a827571a1af480c17fdc,Filled_empty,0,9254f32e77181c50ae514138bb57bbda3f192660754a01bb696b934ae71776c0,2939,True,keypress,testresponse_l_J,1537,['Longer'],choice-response,Longer,6007b9b68ffa26e0d13be3ad,f300ms_delay_2_96,5703,66,f_maintaskTrials_2_l
5ff0a827571a1af480c17fdc,Filled_empty,0,9254f32e77181c50ae514138bb57bbda3f192660754a01bb696b934ae71776c0,2939,True,keypress,testresponse_s_F,1051,['Shorter'],choice-response,Shorter,6007b9b68ffa26e0d13be3ad,f300ms_delay_2_81,5094,67,f_maintaskTrials_2_s
5ff0a827571a1af480c17fdc,Filled_empty,0,9254f32e77181c50ae514138bb57bbda3f192660754a01bb696b934ae71776c0,2939,False,keypress,testresponse_l_J,1653,['Longer'],choice-response,Shorter,6007b9b68ffa26e0d13be3ad,f300ms_delay_2_56,5648,68,f_maintaskTrials_2_l
5ff0a827571a1af480c17fdc,Filled_empty,0,9254f32e77181c50ae514138bb57bbda3f192660754a01bb696b934ae71776c0,2939,True,keypress,testresponse_s_F,610,['Shorter'],choice-response,Shorter,6007b9b68ffa26e0d13be3ad,f300ms_delay_2_83,5282,69,f_maintaskTrials_2_s
5ff0a827571a1af480c17fdc,Filled_empty,0,9254f32e77181c50ae514138bb57bbda3f192660754a01bb696b934ae71776c0,2939,False,keypress,testresponse_s_F,1142,['Shorter'],choice-response,Longer,6007b9b68ffa26e0d13be3ad,f300ms_delay_2_93,5728,70,f_maintaskTrials_2_s
5ff0a827571a1af480c17fdc,Filled_empty,0,9254f32e77181c50ae514138bb57bbda3f192660754a01bb696b934ae71776c0,2939,False,keypress,testresponse_s_F,1021,['Shorter'],choice-response,Longer,6007b9b68ffa26e0d13be3ad,f300ms_delay_2_92,5159,71,f_maintaskTrials_2_s
5ff0a827571a1af480c17fdc,Filled_empty,0,9254f32e77181c50ae514138bb57bbda3f192660754a01bb696b934ae71776c0,2939,True,keypress,testresponse_s_F,666,['Shorter'],choice-response,Shorter,6007b9b68ffa26e0d13be3ad,f300ms_delay_2_91,4776,72,f_maintaskTrials_2_s
5ff0a827571a1af480c17fdc,Filled_empty,0,9254f32e77181c50ae514138bb57bbda3f192660754a01bb696b934ae71776c0,2939,False,keypress,testresponse_s_F,914,['Shorter'],choice-response,Longer,6007b9b68ffa26e0d13be3ad,f300ms_delay_2_83,4953,73,f_maintaskTrials_2_s
5ff0a827571a1af480c17fdc,Filled_empty,0,9254f32e77181c50ae514138bb57bbda3f192660754a01bb696b934ae71776c0,2939,True,keypress,testresponse_s_F,961,['Shorter'],choice-response,Shorter,6007b9b68ffa26e0d13be3ad,f300ms_delay_2_82,4987,74,f_maintaskTrials_2_s
5ff0a827571a1af480c17fdc,Filled_empty,0,9254f32e77181c50ae514138bb57bbda3f192660754a01bb696b934ae71776c0,2939,True,keypress,testresponse_s_F,972,['Shorter'],choice-response,Shorter,6007b9b68ffa26e0d13be3ad,f300ms_delay_2_91,5078,75,f_maintaskTrials_2_s
5ff0a827571a1af480c17fdc,Filled_empty,0,9254f32e77181c50ae514138bb57bbda3f192660754a01bb696b934ae71776c0,2939,True,keypress,testresponse_s_F,368,['Shorter'],choice-response,Shorter,6007b9b68ffa26e0d13be3ad,f300ms_delay_2_92,4463,76,f_maintaskTrials_2_s
5ff0a827571a1af480c17fdc,Filled_empty,0,9254f32e77181c50ae514138bb57bbda3f192660754a01bb696b934ae71776c0,2939,False,keypress,testresponse_l_J,440,['Longer'],choice-response,Shorter,6007b9b68ffa26e0d13be3ad,f300ms_delay_2_56,4863,77,f_maintaskTrials_2_l
5ff0a827571a1af480c17fdc,Filled_empty,0,9254f32e77181c50ae514138bb57bbda3f192660754a01bb696b934ae71776c0,2939,True,keypress,testresponse_l_J,697,['Longer'],choice-response,Longer,6007b9b68ffa26e0d13be3ad,f300ms_delay_2_96,4877,78,f_maintaskTrials_2_l
5ff0a827571a1af480c17fdc,Filled_empty,0,9254f32e77181c50ae514138bb57bbda3f192660754a01bb696b934ae71776c0,2939,True,keypress,testresponse_l_J,766,['Longer'],choice-response,Longer,6007b9b68ffa26e0d13be3ad,f300ms_delay_2_55,4819,79,f_maintaskTrials_2_l
5ff0a827571a1af480c17fdc,Filled_empty,0,9254f32e77181c50ae514138bb57bbda3f192660754a01bb696b934ae71776c0,2939,True,keypress,testresponse_l_J,403,['Longer'],choice-response,Longer,6007b9b68ffa26e0d13be3ad,f300ms_delay_2_94,4701,80,f_maintaskTrials_2_l
5ff0a827571a1af480c17fdc,Filled_empty,0,9254f32e77181c50ae514138bb57bbda3f192660754a01bb696b934ae71776c0,2939,False,keypress,testresponse_s_F,396,['Shorter'],choice-response,Longer,6007b9b68ffa26e0d13be3ad,f300ms_delay_2_53,4443,81,f_maintaskTrials_2_s
5ff0a827571a1af480c17fdc,Filled_empty,0,9254f32e77181c50ae514138bb57bbda3f192660754a01bb696b934ae71776c0,2939,True,keypress,testresponse_s_F,2264,['Shorter'],choice-response,Shorter,6007b9b68ffa26e0d13be3ad,f300ms_delay_2_81,6420,82,f_maintaskTrials_2_s
5ff0a827571a1af480c17fdc,Filled_empty,0,9254f32e77181c50ae514138bb57bbda3f192660754a01bb696b934ae71776c0,2939,True,keypress,testresponse_s_F,718,['Shorter'],choice-response,Shorter,6007b9b68ffa26e0d13be3ad,f300ms_delay_2_51,5114,83,f_maintaskTrials_2_s
5ff0a827571a1af480c17fdc,Filled_empty,0,9254f32e77181c50ae514138bb57bbda3f192660754a01bb696b934ae71776c0,2939,True,keypress,testresponse_s_F,1052,['Shorter'],choice-response,Shorter,6007b9b68ffa26e0d13be3ad,f300ms_delay_2_93,5400,84,f_maintaskTrials_2_s
5ff0a827571a1af480c17fdc,Filled_empty,0,9254f32e77181c50ae514138bb57bbda3f192660754a01bb696b934ae71776c0,2939,True,keypress,testresponse_l_J,1086,['Longer'],choice-response,Longer,6007b9b68ffa26e0d13be3ad,f300ms_delay_2_85,5167,85,f_maintaskTrials_2_l
5ff0a827571a1af480c17fdc,Filled_empty,0,9254f32e77181c50ae514138bb57bbda3f192660754a01bb696b934ae71776c0,2939,False,keypress,testresponse_l_J,602,['Longer'],choice-response,Shorter,6007b9b68ffa26e0d13be3ad,f300ms_delay_2_95,4751,86,f_maintaskTrials_2_l
5ff0a827571a1af480c17fdc,Filled_empty,0,9254f32e77181c50ae514138bb57bbda3f192660754a01bb696b934ae71776c0,2939,True,keypress,testresponse_s_F,1015,['Shorter'],choice-response,Shorter,6007b9b68ffa26e0d13be3ad,f300ms_delay_2_52,5007,87,f_maintaskTrials_2_s
5ff0a827571a1af480c17fdc,Filled_empty,0,9254f32e77181c50ae514138bb57bbda3f192660754a01bb696b934ae71776c0,2939,True,keypress,testresponse_l_J,1463,['Longer'],choice-response,Longer,6007b9b68ffa26e0d13be3ad,f300ms_delay_2_84,5642,88,f_maintaskTrials_2_l
5ff0a827571a1af480c17fdc,Filled_empty,0,9254f32e77181c50ae514138bb57bbda3f192660754a01bb696b934ae71776c0,2939,False,keypress,testresponse_l_J,1772,['Longer'],choice-response,Shorter,6007b9b68ffa26e0d13be3ad,f300ms_delay_2_86,5846,89,f_maintaskTrials_2_l
5ff0a827571a1af480c17fdc,Filled_empty,0,9254f32e77181c50ae514138bb57bbda3f192660754a01bb696b934ae71776c0,2939,False,keypress,testresponse_l_J,936,['Longer'],choice-response,Shorter,6007b9b68ffa26e0d13be3ad,f300ms_delay_2_54,4893,90,f_maintaskTrials_2_l
5ff0a827571a1af480c17fdc,Filled_empty,0,9254f32e77181c50ae514138bb57bbda3f192660754a01bb696b934ae71776c0,2939,True,keypress,testresponse_l_J,1537,['Longer'],choice-response,Longer,6007b9b68ffa26e0d13be3ad,f300ms_delay_2_85,5604,91,f_maintaskTrials_2_l
5ff0a827571a1af480c17fdc,Filled_empty,0,9254f32e77181c50ae514138bb57bbda3f192660754a01bb696b934ae71776c0,2939,True,keypress,testresponse_l_J,909,['Longer'],choice-response,Longer,6007b9b68ffa26e0d13be3ad,f300ms_delay_2_94,5059,92,f_maintaskTrials_2_l
5ff0a827571a1af480c17fdc,Filled_empty,0,9254f32e77181c50ae514138bb57bbda3f192660754a01bb696b934ae71776c0,2939,True,keypress,testresponse_s_F,1677,['Shorter'],choice-response,Shorter,6007b9b68ffa26e0d13be3ad,f300ms_delay_2_83,5750,93,f_maintaskTrials_2_s
5ff0a827571a1af480c17fdc,Filled_empty,0,9254f32e77181c50ae514138bb57bbda3f192660754a01bb696b934ae71776c0,2939,True,keypress,testresponse_s_F,964,['Shorter'],choice-response,Shorter,6007b9b68ffa26e0d13be3ad,f300ms_delay_2_92,5078,94,f_maintaskTrials_2_s
5ff0a827571a1af480c17fdc,Filled_empty,0,9254f32e77181c50ae514138bb57bbda3f192660754a01bb696b934ae71776c0,2939,True,keypress,testresponse_s_F,1317,['Shorter'],choice-response,Shorter,6007b9b68ffa26e0d13be3ad,f300ms_delay_2_82,5464,95,f_maintaskTrials_2_s
5ff0a827571a1af480c17fdc,Filled_empty,0,9254f32e77181c50ae514138bb57bbda3f192660754a01bb696b934ae71776c0,2939,False,keypress,testresponse_s_F,1791,['Shorter'],choice-response,Longer,6007b9b68ffa26e0d13be3ad,f300ms_delay_2_81,6287,96,f_maintaskTrials_2_s
5ff0a827571a1af480c17fdc,Filled_empty,0,9254f32e77181c50ae514138bb57bbda3f192660754a01bb696b934ae71776c0,2939,False,keypress,testresponse_l_J,1790,['Longer'],choice-response,Shorter,6007b9b68ffa26e0d13be3ad,f300ms_delay_2_55,5770,97,f_maintaskTrials_2_l
5ff0a827571a1af480c17fdc,Filled_empty,0,9254f32e77181c50ae514138bb57bbda3f192660754a01bb696b934ae71776c0,2939,True,keypress,testresponse_l_J,1263,['Longer'],choice-response,Longer,6007b9b68ffa26e0d13be3ad,f300ms_delay_2_96,5480,98,f_maintaskTrials_2_l
5ff0a827571a1af480c17fdc,Filled_empty,0,9254f32e77181c50ae514138bb57bbda3f192660754a01bb696b934ae71776c0,2939,False,keypress,testresponse_l_J,436,['Longer'],choice-response,Shorter,6007b9b68ffa26e0d13be3ad,f300ms_delay_2_84,4730,99,f_maintaskTrials_2_l
5ff0a827571a1af480c17fdc,Filled_empty,0,9254f32e77181c50ae514138bb57bbda3f192660754a01bb696b934ae71776c0,2939,False,keypress,testresponse_l_J,1204,['Longer'],choice-response,Shorter,6007b9b68ffa26e0d13be3ad,f300ms_delay_2_56,5623,100,f_maintaskTrials_2_l
5ff0a827571a1af480c17fdc,Filled_empty,0,9254f32e77181c50ae514138bb57bbda3f192660754a01bb696b934ae71776c0,2939,True,keypress,testresponse_s_F,789,['Shorter'],choice-response,Shorter,6007b9b68ffa26e0d13be3ad,f300ms_delay_2_51,4908,101,f_maintaskTrials_2_s
5ff0a827571a1af480c17fdc,Filled_empty,0,9254f32e77181c50ae514138bb57bbda3f192660754a01bb696b934ae71776c0,2939,False,keypress,testresponse_s_F,645,['Shorter'],choice-response,Longer,6007b9b68ffa26e0d13be3ad,f300ms_delay_2_93,4752,102,f_maintaskTrials_2_s
5ff0a827571a1af480c17fdc,Filled_empty,0,9254f32e77181c50ae514138bb57bbda3f192660754a01bb696b934ae71776c0,2939,False,keypress,testresponse_l_J,796,['Longer'],choice-response,Shorter,6007b9b68ffa26e0d13be3ad,f300ms_delay_2_95,4941,103,f_maintaskTrials_2_l
5ff0a827571a1af480c17fdc,Filled_empty,0,9254f32e77181c50ae514138bb57bbda3f192660754a01bb696b934ae71776c0,2939,False,keypress,testresponse_s_F,1643,['Shorter'],choice-response,Longer,6007b9b68ffa26e0d13be3ad,f300ms_delay_2_53,6073,104,f_maintaskTrials_2_s
5ff0a827571a1af480c17fdc,Filled_empty,0,9254f32e77181c50ae514138bb57bbda3f192660754a01bb696b934ae71776c0,2939,True,keypress,testresponse_s_F,1223,['Shorter'],choice-response,Shorter,6007b9b68ffa26e0d13be3ad,f300ms_delay_2_91,5791,105,f_maintaskTrials_2_s
5ff0a827571a1af480c17fdc,Filled_empty,0,9254f32e77181c50ae514138bb57bbda3f192660754a01bb696b934ae71776c0,2939,True,keypress,testresponse_l_J,552,['Longer'],choice-response,Longer,6007b9b68ffa26e0d13be3ad,f300ms_delay_2_86,4630,106,f_maintaskTrials_2_l
5ff0a827571a1af480c17fdc,Filled_empty,0,9254f32e77181c50ae514138bb57bbda3f192660754a01bb696b934ae71776c0,2939,True,keypress,testresponse_s_F,800,['Shorter'],choice-response,Shorter,6007b9b68ffa26e0d13be3ad,f300ms_delay_2_52,4761,107,f_maintaskTrials_2_s
5ff0a827571a1af480c17fdc,Filled_empty,0,9254f32e77181c50ae514138bb57bbda3f192660754a01bb696b934ae71776c0,2939,True,keypress,testresponse_l_J,900,['Longer'],choice-response,Longer,6007b9b68ffa26e0d13be3ad,f300ms_delay_2_54,5296,108,f_maintaskTrials_2_l
5ff0a827571a1af480c17fdc,Filled_empty,0,9254f32e77181c50ae514138bb57bbda3f192660754a01bb696b934ae71776c0,2939,True,keypress,testresponse_l_J,799,['Longer'],choice-response,Longer,6007b9b68ffa26e0d13be3ad,f300ms_delay_2_56,4966,109,f_maintaskTrials_2_l
5ff0a827571a1af480c17fdc,Filled_empty,0,9254f32e77181c50ae514138bb57bbda3f192660754a01bb696b934ae71776c0,2939,True,keypress,testresponse_l_J,699,['Longer'],choice-response,Longer,6007b9b68ffa26e0d13be3ad,f300ms_delay_2_94,4882,110,f_maintaskTrials_2_l
5ff0a827571a1af480c17fdc,Filled_empty,0,9254f32e77181c50ae514138bb57bbda3f192660754a01bb696b934ae71776c0,2939,True,keypress,testresponse_l_J,1665,['Longer'],choice-response,Longer,6007b9b68ffa26e0d13be3ad,f300ms_delay_2_95,5820,111,f_maintaskTrials_2_l
5ff0a827571a1af480c17fdc,Filled_empty,0,9254f32e77181c50ae514138bb57bbda3f192660754a01bb696b934ae71776c0,2939,True,keypress,testresponse_s_F,648,['Shorter'],choice-response,Shorter,6007b9b68ffa26e0d13be3ad,f300ms_delay_2_81,4883,112,f_maintaskTrials_2_s
5ff0a827571a1af480c17fdc,Filled_empty,0,9254f32e77181c50ae514138bb57bbda3f192660754a01bb696b934ae71776c0,2939,False,keypress,testresponse_s_F,1143,['Shorter'],choice-response,Longer,6007b9b68ffa26e0d13be3ad,f300ms_delay_2_52,5116,113,f_maintaskTrials_2_s
5ff0a827571a1af480c17fdc,Filled_empty,0,9254f32e77181c50ae514138bb57bbda3f192660754a01bb696b934ae71776c0,2939,True,keypress,testresponse_s_F,755,['Shorter'],choice-response,Shorter,6007b9b68ffa26e0d13be3ad,f300ms_delay_2_82,4826,114,f_maintaskTrials_2_s
5ff0a827571a1af480c17fdc,Filled_empty,0,9254f32e77181c50ae514138bb57bbda3f192660754a01bb696b934ae71776c0,2939,False,keypress,testresponse_s_F,616,['Shorter'],choice-response,Longer,6007b9b68ffa26e0d13be3ad,f300ms_delay_2_53,4610,115,f_maintaskTrials_2_s
5ff0a827571a1af480c17fdc,Filled_empty,0,9254f32e77181c50ae514138bb57bbda3f192660754a01bb696b934ae71776c0,2939,True,keypress,testresponse_l_J,551,['Longer'],choice-response,Longer,6007b9b68ffa26e0d13be3ad,f300ms_delay_2_55,4513,116,f_maintaskTrials_2_l
5ff0a827571a1af480c17fdc,Filled_empty,0,9254f32e77181c50ae514138bb57bbda3f192660754a01bb696b934ae71776c0,2939,True,keypress,testresponse_s_F,714,['Shorter'],choice-response,Shorter,6007b9b68ffa26e0d13be3ad,f300ms_delay_2_91,4804,117,f_maintaskTrials_2_s
5ff0a827571a1af480c17fdc,Filled_empty,0,9254f32e77181c50ae514138bb57bbda3f192660754a01bb696b934ae71776c0,2939,False,keypress,testresponse_s_F,1080,['Shorter'],choice-response,Longer,6007b9b68ffa26e0d13be3ad,f300ms_delay_2_51,5282,118,f_maintaskTrials_2_s
5ff0a827571a1af480c17fdc,Filled_empty,0,9254f32e77181c50ae514138bb57bbda3f192660754a01bb696b934ae71776c0,2939,False,keypress,testresponse_l_J,1106,['Longer'],choice-response,Shorter,6007b9b68ffa26e0d13be3ad,f300ms_delay_2_54,5115,119,f_maintaskTrials_2_l
5ff0a827571a1af480c17fdc,Filled_empty,0,9254f32e77181c50ae514138bb57bbda3f192660754a01bb696b934ae71776c0,2939,True,keypress,testresponse_s_F,997,['Shorter'],choice-response,Shorter,6007b9b68ffa26e0d13be3ad,f300ms_delay_2_83,5471,120,f_maintaskTrials_2_s
5ff0a827571a1af480c17fdc,Filled_empty,0,9254f32e77181c50ae514138bb57bbda3f192660754a01bb696b934ae71776c0,2939,True,keypress,testresponse_l_J,977,['Longer'],choice-response,Longer,6007b9b68ffa26e0d13be3ad,f300ms_delay_2_84,5516,121,f_maintaskTrials_2_l
5ff0a827571a1af480c17fdc,Filled_empty,0,9254f32e77181c50ae514138bb57bbda3f192660754a01bb696b934ae71776c0,2939,False,keypress,testresponse_s_F,1564,['Shorter'],choice-response,Longer,6007b9b68ffa26e0d13be3ad,f300ms_delay_2_93,5696,122,f_maintaskTrials_2_s
5ff0a827571a1af480c17fdc,Filled_empty,0,9254f32e77181c50ae514138bb57bbda3f192660754a01bb696b934ae71776c0,2939,True,keypress,testresponse_s_F,363,['Shorter'],choice-response,Shorter,6007b9b68ffa26e0d13be3ad,f300ms_delay_2_92,4569,123,f_maintaskTrials_2_s
5ff0a827571a1af480c17fdc,Filled_empty,0,9254f32e77181c50ae514138bb57bbda3f192660754a01bb696b934ae71776c0,2939,False,keypress,testresponse_l_J,958,['Longer'],choice-response,Shorter,6007b9b68ffa26e0d13be3ad,f300ms_delay_2_85,5002,124,f_maintaskTrials_2_l
5ff0a827571a1af480c17fdc,Filled_empty,0,9254f32e77181c50ae514138bb57bbda3f192660754a01bb696b934ae71776c0,2939,False,keypress,testresponse_l_J,1088,['Longer'],choice-response,Shorter,6007b9b68ffa26e0d13be3ad,f300ms_delay_2_86,5475,125,f_maintaskTrials_2_l
5ff0a827571a1af480c17fdc,Filled_empty,0,9254f32e77181c50ae514138bb57bbda3f192660754a01bb696b934ae71776c0,2939,False,keypress,testresponse_l_J,1109,['Longer'],choice-response,Shorter,6007b9b68ffa26e0d13be3ad,f300ms_delay_2_96,5451,126,f_maintaskTrials_2_l
5ff0a827571a1af480c17fdc,Filled_empty,0,9254f32e77181c50ae514138bb57bbda3f192660754a01bb696b934ae71776c0,2939,True,keypress,testresponse_l_J,639,['Longer'],choice-response,Longer,6007b9b68ffa26e0d13be3ad,f300ms_delay_2_86,4832,127,f_maintaskTrials_2_l
5ff0a827571a1af480c17fdc,Filled_empty,0,9254f32e77181c50ae514138bb57bbda3f192660754a01bb696b934ae71776c0,2939,True,keypress,testresponse_l_J,1297,['Longer'],choice-response,Longer,6007b9b68ffa26e0d13be3ad,f300ms_delay_2_96,5522,128,f_maintaskTrials_2_l
5ff0a827571a1af480c17fdc,Filled_empty,0,9254f32e77181c50ae514138bb57bbda3f192660754a01bb696b934ae71776c0,2939,True,keypress,testresponse_l_J,628,['Longer'],choice-response,Longer,6007b9b68ffa26e0d13be3ad,f300ms_delay_2_56,5252,129,f_maintaskTrials_2_l
5ff0a827571a1af480c17fdc,Filled_empty,0,9254f32e77181c50ae514138bb57bbda3f192660754a01bb696b934ae71776c0,2939,True,keypress,testresponse_s_F,681,['Shorter'],choice-response,Shorter,6007b9b68ffa26e0d13be3ad,f300ms_delay_2_91,4800,130,f_maintaskTrials_2_s
5ff0a827571a1af480c17fdc,Filled_empty,0,9254f32e77181c50ae514138bb57bbda3f192660754a01bb696b934ae71776c0,2939,True,keypress,testresponse_s_F,890,['Shorter'],choice-response,Shorter,6007b9b68ffa26e0d13be3ad,f300ms_delay_2_52,5319,131,f_maintaskTrials_2_s
5ff0a827571a1af480c17fdc,Filled_empty,0,9254f32e77181c50ae514138bb57bbda3f192660754a01bb696b934ae71776c0,2939,True,keypress,testresponse_l_J,754,['Longer'],choice-response,Longer,6007b9b68ffa26e0d13be3ad,f300ms_delay_2_55,4719,132,f_maintaskTrials_2_l
5ff0a827571a1af480c17fdc,Filled_empty,0,9254f32e77181c50ae514138bb57bbda3f192660754a01bb696b934ae71776c0,2939,True,keypress,testresponse_l_J,506,['Longer'],choice-response,Longer,6007b9b68ffa26e0d13be3ad,f300ms_delay_2_95,5097,133,f_maintaskTrials_2_l
5ff0a827571a1af480c17fdc,Filled_empty,0,9254f32e77181c50ae514138bb57bbda3f192660754a01bb696b934ae71776c0,2939,False,keypress,testresponse_s_F,1517,['Shorter'],choice-response,Longer,6007b9b68ffa26e0d13be3ad,f300ms_delay_2_82,6013,134,f_maintaskTrials_2_s
5ff0a827571a1af480c17fdc,Filled_empty,0,9254f32e77181c50ae514138bb57bbda3f192660754a01bb696b934ae71776c0,2939,False,keypress,testresponse_l_J,621,['Longer'],choice-response,Shorter,6007b9b68ffa26e0d13be3ad,f300ms_delay_2_54,4598,135,f_maintaskTrials_2_l
5ff0a827571a1af480c17fdc,Filled_empty,0,9254f32e77181c50ae514138bb57bbda3f192660754a01bb696b934ae71776c0,2939,True,keypress,testresponse_s_F,1279,['Shorter'],choice-response,Shorter,6007b9b68ffa26e0d13be3ad,f300ms_delay_2_92,5405,136,f_maintaskTrials_2_s
5ff0a827571a1af480c17fdc,Filled_empty,0,9254f32e77181c50ae514138bb57bbda3f192660754a01bb696b934ae71776c0,2939,True,keypress,testresponse_l_J,805,['Longer'],choice-response,Longer,6007b9b68ffa26e0d13be3ad,f300ms_delay_2_94,4956,137,f_maintaskTrials_2_l
5ff0a827571a1af480c17fdc,Filled_empty,0,9254f32e77181c50ae514138bb57bbda3f192660754a01bb696b934ae71776c0,2939,True,keypress,testresponse_s_F,725,['Shorter'],choice-response,Shorter,6007b9b68ffa26e0d13be3ad,f300ms_delay_2_51,5113,138,f_maintaskTrials_2_s
5ff0a827571a1af480c17fdc,Filled_empty,0,9254f32e77181c50ae514138bb57bbda3f192660754a01bb696b934ae71776c0,2939,True,keypress,testresponse_s_F,1076,['Shorter'],choice-response,Shorter,6007b9b68ffa26e0d13be3ad,f300ms_delay_2_53,5077,139,f_maintaskTrials_2_s
5ff0a827571a1af480c17fdc,Filled_empty,0,9254f32e77181c50ae514138bb57bbda3f192660754a01bb696b934ae71776c0,2939,True,keypress,testresponse_s_F,2764,['Shorter'],choice-response,Shorter,6007b9b68ffa26e0d13be3ad,f300ms_delay_2_81,6777,140,f_maintaskTrials_2_s
5ff0a827571a1af480c17fdc,Filled_empty,0,9254f32e77181c50ae514138bb57bbda3f192660754a01bb696b934ae71776c0,2939,True,keypress,testresponse_l_J,1077,['Longer'],choice-response,Longer,6007b9b68ffa26e0d13be3ad,f300ms_delay_2_85,5406,141,f_maintaskTrials_2_l
5ff0a827571a1af480c17fdc,Filled_empty,0,9254f32e77181c50ae514138bb57bbda3f192660754a01bb696b934ae71776c0,2939,True,keypress,testresponse_l_J,1286,['Longer'],choice-response,Longer,6007b9b68ffa26e0d13be3ad,f300ms_delay_2_84,5423,142,f_maintaskTrials_2_l
5ff0a827571a1af480c17fdc,Filled_empty,0,9254f32e77181c50ae514138bb57bbda3f192660754a01bb696b934ae71776c0,2939,False,keypress,testresponse_s_F,1339,['Shorter'],choice-response,Longer,6007b9b68ffa26e0d13be3ad,f300ms_delay_2_93,5912,143,f_maintaskTrials_2_s
5ff0a827571a1af480c17fdc,Filled_empty,0,9254f32e77181c50ae514138bb57bbda3f192660754a01bb696b934ae71776c0,2939,False,keypress,testresponse_s_F,1013,['Shorter'],choice-response,Longer,6007b9b68ffa26e0d13be3ad,f300ms_delay_2_83,5573,144,f_maintaskTrials_2_s
5ff0a827571a1af480c17fdc,Filled_empty,0,9254f32e77181c50ae514138bb57bbda3f192660754a01bb696b934ae71776c0,2939,True,keypress,testresponse_l_J,827,['Longer'],choice-response,Longer,6007b9b68ffa26e0d13be3ad,f300ms_delay_2_86,5006,145,f_maintaskTrials_2_l
5ff0a827571a1af480c17fdc,Filled_empty,0,9254f32e77181c50ae514138bb57bbda3f192660754a01bb696b934ae71776c0,2939,True,keypress,testresponse_s_F,896,['Shorter'],choice-response,Shorter,6007b9b68ffa26e0d13be3ad,f300ms_delay_2_52,4840,146,f_maintaskTrials_2_s
5ff0a827571a1af480c17fdc,Filled_empty,0,9254f32e77181c50ae514138bb57bbda3f192660754a01bb696b934ae71776c0,2939,True,keypress,testresponse_s_F,1501,['Shorter'],choice-response,Shorter,6007b9b68ffa26e0d13be3ad,f300ms_delay_2_91,5650,147,f_maintaskTrials_2_s
5ff0a827571a1af480c17fdc,Filled_empty,0,9254f32e77181c50ae514138bb57bbda3f192660754a01bb696b934ae71776c0,2939,True,keypress,testresponse_s_F,1960,['Shorter'],choice-response,Shorter,6007b9b68ffa26e0d13be3ad,f300ms_delay_2_53,6379,148,f_maintaskTrials_2_s
5ff0a827571a1af480c17fdc,Filled_empty,0,9254f32e77181c50ae514138bb57bbda3f192660754a01bb696b934ae71776c0,2939,False,keypress,testresponse_l_J,2146,['Longer'],choice-response,Shorter,6007b9b68ffa26e0d13be3ad,f300ms_delay_2_54,6149,149,f_maintaskTrials_2_l
5ff0a827571a1af480c17fdc,Filled_empty,0,9254f32e77181c50ae514138bb57bbda3f192660754a01bb696b934ae71776c0,2939,False,keypress,testresponse_s_F,756,['Shorter'],choice-response,Longer,6007b9b68ffa26e0d13be3ad,f300ms_delay_2_83,5234,150,f_maintaskTrials_2_s
5ff0a827571a1af480c17fdc,Filled_empty,0,9254f32e77181c50ae514138bb57bbda3f192660754a01bb696b934ae71776c0,2939,True,keypress,testresponse_l_J,1256,['Longer'],choice-response,Longer,6007b9b68ffa26e0d13be3ad,f300ms_delay_2_84,5716,151,f_maintaskTrials_2_l
5ff0a827571a1af480c17fdc,Filled_empty,0,9254f32e77181c50ae514138bb57bbda3f192660754a01bb696b934ae71776c0,2939,True,keypress,testresponse_l_J,770,['Longer'],choice-response,Longer,6007b9b68ffa26e0d13be3ad,f300ms_delay_2_85,4815,152,f_maintaskTrials_2_l
5ff0a827571a1af480c17fdc,Filled_empty,0,9254f32e77181c50ae514138bb57bbda3f192660754a01bb696b934ae71776c0,2939,True,keypress,testresponse_s_F,827,['Shorter'],choice-response,Shorter,6007b9b68ffa26e0d13be3ad,f300ms_delay_2_81,4845,153,f_maintaskTrials_2_s
5ff0a827571a1af480c17fdc,Filled_empty,0,9254f32e77181c50ae514138bb57bbda3f192660754a01bb696b934ae71776c0,2939,False,keypress,testresponse_s_F,896,['Shorter'],choice-response,Longer,6007b9b68ffa26e0d13be3ad,f300ms_delay_2_92,5350,154,f_maintaskTrials_2_s
5ff0a827571a1af480c17fdc,Filled_empty,0,9254f32e77181c50ae514138bb57bbda3f192660754a01bb696b934ae71776c0,2939,True,keypress,testresponse_l_J,1679,['Longer'],choice-response,Longer,6007b9b68ffa26e0d13be3ad,f300ms_delay_2_94,5851,155,f_maintaskTrials_2_l
5ff0a827571a1af480c17fdc,Filled_empty,0,9254f32e77181c50ae514138bb57bbda3f192660754a01bb696b934ae71776c0,2939,False,keypress,testresponse_l_J,376,['Longer'],choice-response,Shorter,6007b9b68ffa26e0d13be3ad,f300ms_delay_2_56,4361,156,f_maintaskTrials_2_l
5ff0a827571a1af480c17fdc,Filled_empty,0,9254f32e77181c50ae514138bb57bbda3f192660754a01bb696b934ae71776c0,2939,False,keypress,testresponse_l_J,394,['Longer'],choice-response,Shorter,6007b9b68ffa26e0d13be3ad,f300ms_delay_2_55,4852,157,f_maintaskTrials_2_l
5ff0a827571a1af480c17fdc,Filled_empty,0,9254f32e77181c50ae514138bb57bbda3f192660754a01bb696b934ae71776c0,2939,False,keypress,testresponse_l_J,986,['Longer'],choice-response,Shorter,6007b9b68ffa26e0d13be3ad,f300ms_delay_2_96,5274,158,f_maintaskTrials_2_l
5ff0a827571a1af480c17fdc,Filled_empty,0,9254f32e77181c50ae514138bb57bbda3f192660754a01bb696b934ae71776c0,2939,True,keypress,testresponse_s_F,819,['Shorter'],choice-response,Shorter,6007b9b68ffa26e0d13be3ad,f300ms_delay_2_51,5193,159,f_maintaskTrials_2_s
5ff0a827571a1af480c17fdc,Filled_empty,0,9254f32e77181c50ae514138bb57bbda3f192660754a01bb696b934ae71776c0,2939,False,keypress,testresponse_s_F,1745,['Shorter'],choice-response,Longer,6007b9b68ffa26e0d13be3ad,f300ms_delay_2_82,6229,160,f_maintaskTrials_2_s
5ff0a827571a1af480c17fdc,Filled_empty,0,9254f32e77181c50ae514138bb57bbda3f192660754a01bb696b934ae71776c0,2939,False,keypress,testresponse_l_J,1313,['Longer'],choice-response,Shorter,6007b9b68ffa26e0d13be3ad,f300ms_delay_2_95,5489,161,f_maintaskTrials_2_l
5ff0a827571a1af480c17fdc,Filled_empty,0,9254f32e77181c50ae514138bb57bbda3f192660754a01bb696b934ae71776c0,2939,False,keypress,testresponse_s_F,1302,['Shorter'],choice-response,Longer,6007b9b68ffa26e0d13be3ad,f300ms_delay_2_93,5437,162,f_maintaskTrials_2_s
5ff0a827571a1af480c17fdc,Filled_empty,0,9254f32e77181c50ae514138bb57bbda3f192660754a01bb696b934ae71776c0,2939,False,keypress,testresponse_l_J,1186,['Longer'],choice-response,Shorter,6007b9b68ffa26e0d13be3ad,f300ms_delay_2_84,5252,163,f_maintaskTrials_2_l
5ff0a827571a1af480c17fdc,Filled_empty,0,9254f32e77181c50ae514138bb57bbda3f192660754a01bb696b934ae71776c0,2939,True,keypress,testresponse_l_J,923,['Longer'],choice-response,Longer,6007b9b68ffa26e0d13be3ad,f300ms_delay_2_56,5401,164,f_maintaskTrials_2_l
5ff0a827571a1af480c17fdc,Filled_empty,0,9254f32e77181c50ae514138bb57bbda3f192660754a01bb696b934ae71776c0,2939,False,keypress,testresponse_s_F,1040,['Shorter'],choice-response,Longer,6007b9b68ffa26e0d13be3ad,f300ms_delay_2_93,5203,165,f_maintaskTrials_2_s
5ff0a827571a1af480c17fdc,Filled_empty,0,9254f32e77181c50ae514138bb57bbda3f192660754a01bb696b934ae71776c0,2939,True,keypress,testresponse_l_J,1295,['Longer'],choice-response,Longer,6007b9b68ffa26e0d13be3ad,f300ms_delay_2_94,5644,166,f_maintaskTrials_2_l
5ff0a827571a1af480c17fdc,Filled_empty,0,9254f32e77181c50ae514138bb57bbda3f192660754a01bb696b934ae71776c0,2939,False,keypress,testresponse_s_F,699,['Shorter'],choice-response,Longer,6007b9b68ffa26e0d13be3ad,f300ms_delay_2_53,4643,167,f_maintaskTrials_2_s
5ff0a827571a1af480c17fdc,Filled_empty,0,9254f32e77181c50ae514138bb57bbda3f192660754a01bb696b934ae71776c0,2939,False,keypress,testresponse_l_J,726,['Longer'],choice-response,Shorter,6007b9b68ffa26e0d13be3ad,f300ms_delay_2_54,5157,168,f_maintaskTrials_2_l
5ff0a827571a1af480c17fdc,Filled_empty,0,9254f32e77181c50ae514138bb57bbda3f192660754a01bb696b934ae71776c0,2939,False,keypress,testresponse_l_J,1577,['Longer'],choice-response,Shorter,6007b9b68ffa26e0d13be3ad,f300ms_delay_2_95,5982,169,f_maintaskTrials_2_l
5ff0a827571a1af480c17fdc,Filled_empty,0,9254f32e77181c50ae514138bb57bbda3f192660754a01bb696b934ae71776c0,2939,False,keypress,testresponse_s_F,1192,['Shorter'],choice-response,Longer,6007b9b68ffa26e0d13be3ad,f300ms_delay_2_83,5708,170,f_maintaskTrials_2_s
5ff0a827571a1af480c17fdc,Filled_empty,0,9254f32e77181c50ae514138bb57bbda3f192660754a01bb696b934ae71776c0,2939,True,keypress,testresponse_s_F,796,['Shorter'],choice-response,Shorter,6007b9b68ffa26e0d13be3ad,f300ms_delay_2_91,5394,171,f_maintaskTrials_2_s
5ff0a827571a1af480c17fdc,Filled_empty,0,9254f32e77181c50ae514138bb57bbda3f192660754a01bb696b934ae71776c0,2939,True,keypress,testresponse_l_J,1035,['Longer'],choice-response,Longer,6007b9b68ffa26e0d13be3ad,f300ms_delay_2_96,5755,172,f_maintaskTrials_2_l
5ff0a827571a1af480c17fdc,Filled_empty,0,9254f32e77181c50ae514138bb57bbda3f192660754a01bb696b934ae71776c0,2939,True,keypress,testresponse_s_F,700,['Shorter'],choice-response,Shorter,6007b9b68ffa26e0d13be3ad,f300ms_delay_2_81,4731,173,f_maintaskTrials_2_s
5ff0a827571a1af480c17fdc,Filled_empty,0,9254f32e77181c50ae514138bb57bbda3f192660754a01bb696b934ae71776c0,2939,True,keypress,testresponse_s_F,900,['Shorter'],choice-response,Shorter,6007b9b68ffa26e0d13be3ad,f300ms_delay_2_82,5396,174,f_maintaskTrials_2_s
5ff0a827571a1af480c17fdc,Filled_empty,0,9254f32e77181c50ae514138bb57bbda3f192660754a01bb696b934ae71776c0,2939,False,keypress,testresponse_s_F,1278,['Shorter'],choice-response,Longer,6007b9b68ffa26e0d13be3ad,f300ms_delay_2_52,5489,175,f_maintaskTrials_2_s
5ff0a827571a1af480c17fdc,Filled_empty,0,9254f32e77181c50ae514138bb57bbda3f192660754a01bb696b934ae71776c0,2939,True,keypress,testresponse_s_F,1144,['Shorter'],choice-response,Shorter,6007b9b68ffa26e0d13be3ad,f300ms_delay_2_51,5081,176,f_maintaskTrials_2_s
5ff0a827571a1af480c17fdc,Filled_empty,0,9254f32e77181c50ae514138bb57bbda3f192660754a01bb696b934ae71776c0,2939,False,keypress,testresponse_l_J,1219,['Longer'],choice-response,Shorter,6007b9b68ffa26e0d13be3ad,f300ms_delay_2_85,5716,177,f_maintaskTrials_2_l
5ff0a827571a1af480c17fdc,Filled_empty,0,9254f32e77181c50ae514138bb57bbda3f192660754a01bb696b934ae71776c0,2939,False,keypress,testresponse_l_J,1642,['Longer'],choice-response,Shorter,6007b9b68ffa26e0d13be3ad,f300ms_delay_2_86,6173,178,f_maintaskTrials_2_l
5ff0a827571a1af480c17fdc,Filled_empty,0,9254f32e77181c50ae514138bb57bbda3f192660754a01bb696b934ae71776c0,2939,True,keypress,testresponse_s_F,1156,['Shorter'],choice-response,Shorter,6007b9b68ffa26e0d13be3ad,f300ms_delay_2_92,5264,179,f_maintaskTrials_2_s
5ff0a827571a1af480c17fdc,Filled_empty,0,9254f32e77181c50ae514138bb57bbda3f192660754a01bb696b934ae71776c0,2939,False,keypress,testresponse_l_J,603,['Longer'],choice-response,Shorter,6007b9b68ffa26e0d13be3ad,f300ms_delay_2_55,4578,180,f_maintaskTrials_2_l
5ff0a827571a1af480c17fdc,Filled_empty,0,9254f32e77181c50ae514138bb57bbda3f192660754a01bb696b934ae71776c0,2939,False,keypress,testresponse_l_J,537,['Longer'],choice-response,Shorter,6007b9b68ffa26e0d13be3ad,f300ms_delay_2_84,4576,181,f_maintaskTrials_2_l
5ff0a827571a1af480c17fdc,Filled_empty,0,9254f32e77181c50ae514138bb57bbda3f192660754a01bb696b934ae71776c0,2939,True,keypress,testresponse_l_J,1445,['Longer'],choice-response,Longer,6007b9b68ffa26e0d13be3ad,f300ms_delay_2_85,5717,182,f_maintaskTrials_2_l
5ff0a827571a1af480c17fdc,Filled_empty,0,9254f32e77181c50ae514138bb57bbda3f192660754a01bb696b934ae71776c0,2939,True,keypress,testresponse_s_F,608,['Shorter'],choice-response,Shorter,6007b9b68ffa26e0d13be3ad,f300ms_delay_2_51,4551,183,f_maintaskTrials_2_s
5ff0a827571a1af480c17fdc,Filled_empty,0,9254f32e77181c50ae514138bb57bbda3f192660754a01bb696b934ae71776c0,2939,True,keypress,testresponse_l_J,1483,['Longer'],choice-response,Longer,6007b9b68ffa26e0d13be3ad,f300ms_delay_2_86,5579,184,f_maintaskTrials_2_l
5ff0a827571a1af480c17fdc,Filled_empty,0,9254f32e77181c50ae514138bb57bbda3f192660754a01bb696b934ae71776c0,2939,True,keypress,testresponse_s_F,703,['Shorter'],choice-response,Shorter,6007b9b68ffa26e0d13be3ad,f300ms_delay_2_81,4735,185,f_maintaskTrials_2_s
5ff0a827571a1af480c17fdc,Filled_empty,0,9254f32e77181c50ae514138bb57bbda3f192660754a01bb696b934ae71776c0,2939,True,keypress,testresponse_s_F,776,['Shorter'],choice-response,Shorter,6007b9b68ffa26e0d13be3ad,f300ms_delay_2_52,4842,186,f_maintaskTrials_2_s
5ff0a827571a1af480c17fdc,Filled_empty,0,9254f32e77181c50ae514138bb57bbda3f192660754a01bb696b934ae71776c0,2939,False,keypress,testresponse_s_F,1275,['Shorter'],choice-response,Longer,6007b9b68ffa26e0d13be3ad,f300ms_delay_2_83,5565,187,f_maintaskTrials_2_s
5ff0a827571a1af480c17fdc,Filled_empty,0,9254f32e77181c50ae514138bb57bbda3f192660754a01bb696b934ae71776c0,2939,False,keypress,testresponse_s_F,1378,['Shorter'],choice-response,Longer,6007b9b68ffa26e0d13be3ad,f300ms_delay_2_82,5425,188,f_maintaskTrials_2_s
5ff0a827571a1af480c17fdc,Filled_empty,0,9254f32e77181c50ae514138bb57bbda3f192660754a01bb696b934ae71776c0,2939,True,keypress,testresponse_s_F,1237,['Shorter'],choice-response,Shorter,6007b9b68ffa26e0d13be3ad,f300ms_delay_2_93,5867,189,f_maintaskTrials_2_s
5ff0a827571a1af480c17fdc,Filled_empty,0,9254f32e77181c50ae514138bb57bbda3f192660754a01bb696b934ae71776c0,2939,False,keypress,testresponse_l_J,599,['Longer'],choice-response,Shorter,6007b9b68ffa26e0d13be3ad,f300ms_delay_2_54,4598,190,f_maintaskTrials_2_l
5ff0a827571a1af480c17fdc,Filled_empty,0,9254f32e77181c50ae514138bb57bbda3f192660754a01bb696b934ae71776c0,2939,True,keypress,testresponse_s_F,1263,['Shorter'],choice-response,Shorter,6007b9b68ffa26e0d13be3ad,f300ms_delay_2_92,5466,191,f_maintaskTrials_2_s
5ff0a827571a1af480c17fdc,Filled_empty,0,9254f32e77181c50ae514138bb57bbda3f192660754a01bb696b934ae71776c0,2939,False,keypress,testresponse_l_J,844,['Longer'],choice-response,Shorter,6007b9b68ffa26e0d13be3ad,f300ms_delay_2_55,4842,192,f_maintaskTrials_2_l
5ff0a827571a1af480c17fdc,Filled_empty,0,9254f32e77181c50ae514138bb57bbda3f192660754a01bb696b934ae71776c0,2939,True,keypress,testresponse_l_J,913,['Longer'],choice-response,Longer,6007b9b68ffa26e0d13be3ad,f300ms_delay_2_56,4921,193,f_maintaskTrials_2_l
5ff0a827571a1af480c17fdc,Filled_empty,0,9254f32e77181c50ae514138bb57bbda3f192660754a01bb696b934ae71776c0,2939,True,keypress,testresponse_l_J,513,['Longer'],choice-response,Longer,6007b9b68ffa26e0d13be3ad,f300ms_delay_2_94,5136,194,f_maintaskTrials_2_l
5ff0a827571a1af480c17fdc,Filled_empty,0,9254f32e77181c50ae514138bb57bbda3f192660754a01bb696b934ae71776c0,2939,True,keypress,testresponse_l_J,809,['Longer'],choice-response,Longer,6007b9b68ffa26e0d13be3ad,f300ms_delay_2_95,4978,195,f_maintaskTrials_2_l
5ff0a827571a1af480c17fdc,Filled_empty,0,9254f32e77181c50ae514138bb57bbda3f192660754a01bb696b934ae71776c0,2939,True,keypress,testresponse_l_J,1429,['Longer'],choice-response,Longer,6007b9b68ffa26e0d13be3ad,f300ms_delay_2_96,5814,196,f_maintaskTrials_2_l
5ff0a827571a1af480c17fdc,Filled_empty,0,9254f32e77181c50ae514138bb57bbda3f192660754a01bb696b934ae71776c0,2939,True,keypress,testresponse_s_F,418,['Shorter'],choice-response,Shorter,6007b9b68ffa26e0d13be3ad,f300ms_delay_2_53,4421,197,f_maintaskTrials_2_s
5ff0a827571a1af480c17fdc,Filled_empty,0,9254f32e77181c50ae514138bb57bbda3f192660754a01bb696b934ae71776c0,2939,True,keypress,testresponse_s_F,979,['Shorter'],choice-response,Shorter,6007b9b68ffa26e0d13be3ad,f300ms_delay_2_91,5072,198,f_maintaskTrials_2_s
5ff0a827571a1af480c17fdc,Filled_empty,0,9254f32e77181c50ae514138bb57bbda3f192660754a01bb696b934ae71776c0,2939,True,keypress,testresponse_l_J,747,['Longer'],choice-response,Longer,6007b9b68ffa26e0d13be3ad,f300ms_delay_2_84,4792,199,f_maintaskTrials_2_l
5ff0a827571a1af480c17fdc,Filled_empty,0,9254f32e77181c50ae514138bb57bbda3f192660754a01bb696b934ae71776c0,2939,True,keypress,testresponse_l_J,1144,['Longer'],choice-response,Longer,6007b9b68ffa26e0d13be3ad,f300ms_delay_2_94,5316,200,f_maintaskTrials_2_l
5ff0a827571a1af480c17fdc,Filled_empty,0,9254f32e77181c50ae514138bb57bbda3f192660754a01bb696b934ae71776c0,2939,True,keypress,testresponse_l_J,1431,['Longer'],choice-response,Longer,6007b9b68ffa26e0d13be3ad,f300ms_delay_2_54,5438,201,f_maintaskTrials_2_l
5ff0a827571a1af480c17fdc,Filled_empty,0,9254f32e77181c50ae514138bb57bbda3f192660754a01bb696b934ae71776c0,2939,False,keypress,testresponse_s_F,1211,['Shorter'],choice-response,Longer,6007b9b68ffa26e0d13be3ad,f300ms_delay_2_81,5827,202,f_maintaskTrials_2_s
5ff0a827571a1af480c17fdc,Filled_empty,0,9254f32e77181c50ae514138bb57bbda3f192660754a01bb696b934ae71776c0,2939,True,keypress,testresponse_s_F,432,['Shorter'],choice-response,Shorter,6007b9b68ffa26e0d13be3ad,f300ms_delay_2_52,4459,203,f_maintaskTrials_2_s
5ff0a827571a1af480c17fdc,Filled_empty,0,9254f32e77181c50ae514138bb57bbda3f192660754a01bb696b934ae71776c0,2939,True,keypress,testresponse_l_J,526,['Longer'],choice-response,Longer,6007b9b68ffa26e0d13be3ad,f300ms_delay_2_55,5034,204,f_maintaskTrials_2_l
5ff0a827571a1af480c17fdc,Filled_empty,0,9254f32e77181c50ae514138bb57bbda3f192660754a01bb696b934ae71776c0,2939,True,keypress,testresponse_l_J,877,['Longer'],choice-response,Longer,6007b9b68ffa26e0d13be3ad,f300ms_delay_2_96,5481,205,f_maintaskTrials_2_l
5ff0a827571a1af480c17fdc,Filled_empty,0,9254f32e77181c50ae514138bb57bbda3f192660754a01bb696b934ae71776c0,2939,True,keypress,testresponse_s_F,487,['Shorter'],choice-response,Shorter,6007b9b68ffa26e0d13be3ad,f300ms_delay_2_51,4444,206,f_maintaskTrials_2_s
5ff0a827571a1af480c17fdc,Filled_empty,0,9254f32e77181c50ae514138bb57bbda3f192660754a01bb696b934ae71776c0,2939,True,keypress,testresponse_s_F,1070,['Shorter'],choice-response,Shorter,6007b9b68ffa26e0d13be3ad,f300ms_delay_2_92,5221,207,f_maintaskTrials_2_s
5ff0a827571a1af480c17fdc,Filled_empty,0,9254f32e77181c50ae514138bb57bbda3f192660754a01bb696b934ae71776c0,2939,True,keypress,testresponse_s_F,803,['Shorter'],choice-response,Shorter,6007b9b68ffa26e0d13be3ad,f300ms_delay_2_91,4907,208,f_maintaskTrials_2_s
5ff0a827571a1af480c17fdc,Filled_empty,0,9254f32e77181c50ae514138bb57bbda3f192660754a01bb696b934ae71776c0,2939,True,keypress,testresponse_l_J,700,['Longer'],choice-response,Longer,6007b9b68ffa26e0d13be3ad,f300ms_delay_2_86,5519,209,f_maintaskTrials_2_l
5ff0a827571a1af480c17fdc,Filled_empty,0,9254f32e77181c50ae514138bb57bbda3f192660754a01bb696b934ae71776c0,2939,False,keypress,testresponse_s_F,985,['Shorter'],choice-response,Longer,6007b9b68ffa26e0d13be3ad,f300ms_delay_2_82,5011,210,f_maintaskTrials_2_s
5ff0a827571a1af480c17fdc,Filled_empty,0,9254f32e77181c50ae514138bb57bbda3f192660754a01bb696b934ae71776c0,2939,True,keypress,testresponse_s_F,668,['Shorter'],choice-response,Shorter,6007b9b68ffa26e0d13be3ad,f300ms_delay_2_53,4751,211,f_maintaskTrials_2_s
5ff0a827571a1af480c17fdc,Filled_empty,0,9254f32e77181c50ae514138bb57bbda3f192660754a01bb696b934ae71776c0,2939,True,keypress,testresponse_l_J,765,['Longer'],choice-response,Longer,6007b9b68ffa26e0d13be3ad,f300ms_delay_2_56,4971,212,f_maintaskTrials_2_l
5ff0a827571a1af480c17fdc,Filled_empty,0,9254f32e77181c50ae514138bb57bbda3f192660754a01bb696b934ae71776c0,2939,True,keypress,testresponse_l_J,453,['Longer'],choice-response,Longer,6007b9b68ffa26e0d13be3ad,f300ms_delay_2_95,5053,213,f_maintaskTrials_2_l
5ff0a827571a1af480c17fdc,Filled_empty,0,9254f32e77181c50ae514138bb57bbda3f192660754a01bb696b934ae71776c0,2939,True,keypress,testresponse_s_F,1726,['Shorter'],choice-response,Shorter,6007b9b68ffa26e0d13be3ad,f300ms_delay_2_93,5869,214,f_maintaskTrials_2_s
5ff0a827571a1af480c17fdc,Filled_empty,0,9254f32e77181c50ae514138bb57bbda3f192660754a01bb696b934ae71776c0,2939,False,keypress,testresponse_l_J,800,['Longer'],choice-response,Shorter,6007b9b68ffa26e0d13be3ad,f300ms_delay_2_85,5336,215,f_maintaskTrials_2_l
5ff0a827571a1af480c17fdc,Filled_empty,0,9254f32e77181c50ae514138bb57bbda3f192660754a01bb696b934ae71776c0,2939,True,keypress,testresponse_s_F,764,['Shorter'],choice-response,Shorter,6007b9b68ffa26e0d13be3ad,f300ms_delay_2_83,4839,216,f_maintaskTrials_2_s
5ff0a827571a1af480c17fdc,Filled_empty,0,9254f32e77181c50ae514138bb57bbda3f192660754a01bb696b934ae71776c0,2939,True,keypress,testresponse_s_F,717,['Shorter'],choice-response,Shorter,6007b9b68ffa26e0d13be3ad,f300ms_delay_2_52,4679,217,f_maintaskTrials_2_s
5ff0a827571a1af480c17fdc,Filled_empty,0,9254f32e77181c50ae514138bb57bbda3f192660754a01bb696b934ae71776c0,2939,False,keypress,testresponse_s_F,2118,['Shorter'],choice-response,Longer,6007b9b68ffa26e0d13be3ad,f300ms_delay_2_51,6532,218,f_maintaskTrials_2_s
5ff0a827571a1af480c17fdc,Filled_empty,0,9254f32e77181c50ae514138bb57bbda3f192660754a01bb696b934ae71776c0,2939,True,keypress,testresponse_l_J,827,['Longer'],choice-response,Longer,6007b9b68ffa26e0d13be3ad,f300ms_delay_2_85,4907,219,f_maintaskTrials_2_l
5ff0a827571a1af480c17fdc,Filled_empty,0,9254f32e77181c50ae514138bb57bbda3f192660754a01bb696b934ae71776c0,2939,True,keypress,testresponse_l_J,1758,['Longer'],choice-response,Longer,6007b9b68ffa26e0d13be3ad,f300ms_delay_2_84,5806,220,f_maintaskTrials_2_l
5ff0a827571a1af480c17fdc,Filled_empty,0,9254f32e77181c50ae514138bb57bbda3f192660754a01bb696b934ae71776c0,2939,True,keypress,testresponse_l_J,820,['Longer'],choice-response,Longer,6007b9b68ffa26e0d13be3ad,f300ms_delay_2_86,5367,221,f_maintaskTrials_2_l
5ff0a827571a1af480c17fdc,Filled_empty,0,9254f32e77181c50ae514138bb57bbda3f192660754a01bb696b934ae71776c0,2939,True,keypress,testresponse_l_J,1336,['Longer'],choice-response,Longer,6007b9b68ffa26e0d13be3ad,f300ms_delay_2_94,5477,222,f_maintaskTrials_2_l
5ff0a827571a1af480c17fdc,Filled_empty,0,9254f32e77181c50ae514138bb57bbda3f192660754a01bb696b934ae71776c0,2939,True,keypress,testresponse_s_F,853,['Shorter'],choice-response,Shorter,6007b9b68ffa26e0d13be3ad,f300ms_delay_2_93,5229,223,f_maintaskTrials_2_s
5ff0a827571a1af480c17fdc,Filled_empty,0,9254f32e77181c50ae514138bb57bbda3f192660754a01bb696b934ae71776c0,2939,True,keypress,testresponse_s_F,1939,['Shorter'],choice-response,Shorter,6007b9b68ffa26e0d13be3ad,f300ms_delay_2_82,5984,224,f_maintaskTrials_2_s
5ff0a827571a1af480c17fdc,Filled_empty,0,9254f32e77181c50ae514138bb57bbda3f192660754a01bb696b934ae71776c0,2939,False,keypress,testresponse_s_F,744,['Shorter'],choice-response,Longer,6007b9b68ffa26e0d13be3ad,f300ms_delay_2_83,4810,225,f_maintaskTrials_2_s
5ff0a827571a1af480c17fdc,Filled_empty,0,9254f32e77181c50ae514138bb57bbda3f192660754a01bb696b934ae71776c0,2939,True,keypress,testresponse_l_J,384,['Longer'],choice-response,Longer,6007b9b68ffa26e0d13be3ad,f300ms_delay_2_95,4558,226,f_maintaskTrials_2_l
5ff0a827571a1af480c17fdc,Filled_empty,0,9254f32e77181c50ae514138bb57bbda3f192660754a01bb696b934ae71776c0,2939,True,keypress,testresponse_l_J,352,['Longer'],choice-response,Longer,6007b9b68ffa26e0d13be3ad,f300ms_delay_2_56,4330,227,f_maintaskTrials_2_l
5ff0a827571a1af480c17fdc,Filled_empty,0,9254f32e77181c50ae514138bb57bbda3f192660754a01bb696b934ae71776c0,2939,True,keypress,testresponse_s_F,717,['Shorter'],choice-response,Shorter,6007b9b68ffa26e0d13be3ad,f300ms_delay_2_81,4898,228,f_maintaskTrials_2_s
5ff0a827571a1af480c17fdc,Filled_empty,0,9254f32e77181c50ae514138bb57bbda3f192660754a01bb696b934ae71776c0,2939,False,keypress,testresponse_s_F,1503,['Shorter'],choice-response,Longer,6007b9b68ffa26e0d13be3ad,f300ms_delay_2_92,6046,229,f_maintaskTrials_2_s
5ff0a827571a1af480c17fdc,Filled_empty,0,9254f32e77181c50ae514138bb57bbda3f192660754a01bb696b934ae71776c0,2939,True,keypress,testresponse_s_F,1381,['Shorter'],choice-response,Shorter,6007b9b68ffa26e0d13be3ad,f300ms_delay_2_53,5371,230,f_maintaskTrials_2_s
5ff0a827571a1af480c17fdc,Filled_empty,0,9254f32e77181c50ae514138bb57bbda3f192660754a01bb696b934ae71776c0,2939,False,keypress,testresponse_l_J,646,['Longer'],choice-response,Shorter,6007b9b68ffa26e0d13be3ad,f300ms_delay_2_54,4623,231,f_maintaskTrials_2_l
5ff0a827571a1af480c17fdc,Filled_empty,0,9254f32e77181c50ae514138bb57bbda3f192660754a01bb696b934ae71776c0,2939,True,keypress,testresponse_l_J,1010,['Longer'],choice-response,Longer,6007b9b68ffa26e0d13be3ad,f300ms_delay_2_96,5886,232,f_maintaskTrials_2_l
5ff0a827571a1af480c17fdc,Filled_empty,0,9254f32e77181c50ae514138bb57bbda3f192660754a01bb696b934ae71776c0,2939,False,keypress,testresponse_s_F,1226,['Shorter'],choice-response,Longer,6007b9b68ffa26e0d13be3ad,f300ms_delay_2_91,5410,233,f_maintaskTrials_2_s
5ff0a827571a1af480c17fdc,Filled_empty,0,9254f32e77181c50ae514138bb57bbda3f192660754a01bb696b934ae71776c0,2939,False,keypress,testresponse_l_J,3429,['Longer'],choice-response,Shorter,6007b9b68ffa26e0d13be3ad,f300ms_delay_2_55,7444,234,f_maintaskTrials_2_l
5ff0a827571a1af480c17fdc,Filled_empty,0,9254f32e77181c50ae514138bb57bbda3f192660754a01bb696b934ae71776c0,2939,False,keypress,exampleresponse_l_J,7506,['Longer'],choice-response,Shorter,6007b9b68ffa26e0d13be3ad,e300ms_long,15237,235,e_example_l
5ff0a827571a1af480c17fdc,Filled_empty,0,9254f32e77181c50ae514138bb57bbda3f192660754a01bb696b934ae71776c0,2939,True,keypress,exampleresponse_s_F,3702,['Shorter'],choice-response,Shorter,6007b9b68ffa26e0d13be3ad,e300ms_short,10464,236,e_example_s
5ff0a827571a1af480c17fdc,Filled_empty,0,9254f32e77181c50ae514138bb57bbda3f192660754a01bb696b934ae71776c0,2939,True,keypress,exampleresponse_l_J,994,['Longer'],choice-response,Longer,6007b9b68ffa26e0d13be3ad,e300ms_long,8710,237,e_example_l
5ff0a827571a1af480c17fdc,Filled_empty,0,9254f32e77181c50ae514138bb57bbda3f192660754a01bb696b934ae71776c0,2939,True,keypress,exampleresponse_s_F,948,['Shorter'],choice-response,Shorter,6007b9b68ffa26e0d13be3ad,e300ms_short,8063,238,e_example_s
5ff0a827571a1af480c17fdc,Filled_empty,0,9254f32e77181c50ae514138bb57bbda3f192660754a01bb696b934ae71776c0,2939,True,keypress,practiceresponse_s_F,1665,['Shorter'],choice-response,Shorter,6007b9b68ffa26e0d13be3ad,e300ms_delay_2_81,8726,239,e_practiceTrials_s
5ff0a827571a1af480c17fdc,Filled_empty,0,9254f32e77181c50ae514138bb57bbda3f192660754a01bb696b934ae71776c0,2939,True,keypress,practiceresponse_l_J,2157,['Longer'],choice-response,Longer,6007b9b68ffa26e0d13be3ad,e300ms_delay_2_86,9199,240,e_practiceTrials_l
5ff0a827571a1af480c17fdc,Filled_empty,0,9254f32e77181c50ae514138bb57bbda3f192660754a01bb696b934ae71776c0,2939,False,keypress,practiceresponse_l_J,1909,['Longer'],choice-response,Shorter,6007b9b68ffa26e0d13be3ad,e300ms_delay_2_86,10128,241,e_practiceTrials_l
5ff0a827571a1af480c17fdc,Filled_empty,0,9254f32e77181c50ae514138bb57bbda3f192660754a01bb696b934ae71776c0,2939,True,keypress,practiceresponse_s_F,462,['Shorter'],choice-response,Shorter,6007b9b68ffa26e0d13be3ad,e300ms_delay_2_81,7402,242,e_practiceTrials_s
5ff0a827571a1af480c17fdc,Filled_empty,0,9254f32e77181c50ae514138bb57bbda3f192660754a01bb696b934ae71776c0,2939,True,keypress,practiceresponse_s_F,402,['Shorter'],choice-response,Shorter,6007b9b68ffa26e0d13be3ad,e300ms_delay_2_81,8351,243,e_practiceTrials_s
5ff0a827571a1af480c17fdc,Filled_empty,0,9254f32e77181c50ae514138bb57bbda3f192660754a01bb696b934ae71776c0,2939,True,keypress,practiceresponse_l_J,306,['Longer'],choice-response,Longer,6007b9b68ffa26e0d13be3ad,e300ms_delay_2_86,7911,244,e_practiceTrials_l
5ff0a827571a1af480c17fdc,Filled_empty,0,9254f32e77181c50ae514138bb57bbda3f192660754a01bb696b934ae71776c0,2939,True,keypress,practiceresponse_s_F,322,['Shorter'],choice-response,Shorter,6007b9b68ffa26e0d13be3ad,e300ms_delay_2_81,7668,245,e_practiceTrials_s
5ff0a827571a1af480c17fdc,Filled_empty,0,9254f32e77181c50ae514138bb57bbda3f192660754a01bb696b934ae71776c0,2939,True,keypress,practiceresponse_l_J,798,['Longer'],choice-response,Longer,6007b9b68ffa26e0d13be3ad,e300ms_delay_2_86,8163,246,e_practiceTrials_l
5ff0a827571a1af480c17fdc,Filled_empty,0,9254f32e77181c50ae514138bb57bbda3f192660754a01bb696b934ae71776c0,2939,True,keypress,practiceresponse_l_J,1431,['Longer'],choice-response,Longer,6007b9b68ffa26e0d13be3ad,e300ms_delay_2_86,9098,247,e_practiceTrials_l
5ff0a827571a1af480c17fdc,Filled_empty,0,9254f32e77181c50ae514138bb57bbda3f192660754a01bb696b934ae71776c0,2939,True,keypress,practiceresponse_s_F,419,['Shorter'],choice-response,Shorter,6007b9b68ffa26e0d13be3ad,e300ms_delay_2_81,7853,248,e_practiceTrials_s
5ff0a827571a1af480c17fdc,Filled_empty,0,9254f32e77181c50ae514138bb57bbda3f192660754a01bb696b934ae71776c0,2939,True,keypress,practiceresponse_l_J,658,['Longer'],choice-response,Longer,6007b9b68ffa26e0d13be3ad,e300ms_delay_2_86,7726,249,e_practiceTrials_l
5ff0a827571a1af480c17fdc,Filled_empty,0,9254f32e77181c50ae514138bb57bbda3f192660754a01bb696b934ae71776c0,2939,True,keypress,practiceresponse_s_F,342,['Shorter'],choice-response,Shorter,6007b9b68ffa26e0d13be3ad,e300ms_delay_2_81,7382,250,e_practiceTrials_s
5ff0a827571a1af480c17fdc,Filled_empty,0,9254f32e77181c50ae514138bb57bbda3f192660754a01bb696b934ae71776c0,2939,True,keypress,testresponse_s_F,735,['Shorter'],choice-response,Shorter,6007b9b68ffa26e0d13be3ad,e300ms_delay_2_93,5795,251,e_maintaskTrials_2_s
5ff0a827571a1af480c17fdc,Filled_empty,0,9254f32e77181c50ae514138bb57bbda3f192660754a01bb696b934ae71776c0,2939,False,keypress,testresponse_s_F,1127,['Shorter'],choice-response,Longer,6007b9b68ffa26e0d13be3ad,e300ms_delay_2_82,5437,252,e_maintaskTrials_2_s
5ff0a827571a1af480c17fdc,Filled_empty,0,9254f32e77181c50ae514138bb57bbda3f192660754a01bb696b934ae71776c0,2939,False,keypress,testresponse_l_J,208,['Longer'],choice-response,Shorter,6007b9b68ffa26e0d13be3ad,e300ms_delay_2_54,4724,253,e_maintaskTrials_2_l
5ff0a827571a1af480c17fdc,Filled_empty,0,9254f32e77181c50ae514138bb57bbda3f192660754a01bb696b934ae71776c0,2939,True,keypress,testresponse_l_J,890,['Longer'],choice-response,Longer,6007b9b68ffa26e0d13be3ad,e300ms_delay_2_94,5389,254,e_maintaskTrials_2_l
5ff0a827571a1af480c17fdc,Filled_empty,0,9254f32e77181c50ae514138bb57bbda3f192660754a01bb696b934ae71776c0,2939,True,keypress,testresponse_s_F,393,['Shorter'],choice-response,Shorter,6007b9b68ffa26e0d13be3ad,e300ms_delay_2_81,4720,255,e_maintaskTrials_2_s
5ff0a827571a1af480c17fdc,Filled_empty,0,9254f32e77181c50ae514138bb57bbda3f192660754a01bb696b934ae71776c0,2939,False,keypress,testresponse_s_F,766,['Shorter'],choice-response,Longer,6007b9b68ffa26e0d13be3ad,e300ms_delay_2_92,5396,256,e_maintaskTrials_2_s
5ff0a827571a1af480c17fdc,Filled_empty,0,9254f32e77181c50ae514138bb57bbda3f192660754a01bb696b934ae71776c0,2939,True,keypress,testresponse_l_J,497,['Longer'],choice-response,Longer,6007b9b68ffa26e0d13be3ad,e300ms_delay_2_85,4884,257,e_maintaskTrials_2_l
5ff0a827571a1af480c17fdc,Filled_empty,0,9254f32e77181c50ae514138bb57bbda3f192660754a01bb696b934ae71776c0,2939,True,keypress,testresponse_l_J,375,['Longer'],choice-response,Longer,6007b9b68ffa26e0d13be3ad,e300ms_delay_2_86,4858,258,e_maintaskTrials_2_l
5ff0a827571a1af480c17fdc,Filled_empty,0,9254f32e77181c50ae514138bb57bbda3f192660754a01bb696b934ae71776c0,2939,True,keypress,testresponse_s_F,227,['Shorter'],choice-response,Shorter,6007b9b68ffa26e0d13be3ad,e300ms_delay_2_53,4535,259,e_maintaskTrials_2_s
5ff0a827571a1af480c17fdc,Filled_empty,0,9254f32e77181c50ae514138bb57bbda3f192660754a01bb696b934ae71776c0,2939,True,keypress,testresponse_s_F,1057,['Shorter'],choice-response,Shorter,6007b9b68ffa26e0d13be3ad,e300ms_delay_2_91,6112,260,e_maintaskTrials_2_s
5ff0a827571a1af480c17fdc,Filled_empty,0,9254f32e77181c50ae514138bb57bbda3f192660754a01bb696b934ae71776c0,2939,False,keypress,testresponse_l_J,139,['Longer'],choice-response,Shorter,6007b9b68ffa26e0d13be3ad,e300ms_delay_2_55,4532,261,e_maintaskTrials_2_l
5ff0a827571a1af480c17fdc,Filled_empty,0,9254f32e77181c50ae514138bb57bbda3f192660754a01bb696b934ae71776c0,2939,True,keypress,testresponse_s_F,249,['Shorter'],choice-response,Shorter,6007b9b68ffa26e0d13be3ad,e300ms_delay_2_51,4880,262,e_maintaskTrials_2_s
5ff0a827571a1af480c17fdc,Filled_empty,0,9254f32e77181c50ae514138bb57bbda3f192660754a01bb696b934ae71776c0,2939,True,keypress,testresponse_s_F,220,['Shorter'],choice-response,Shorter,6007b9b68ffa26e0d13be3ad,e300ms_delay_2_52,4462,263,e_maintaskTrials_2_s
5ff0a827571a1af480c17fdc,Filled_empty,0,9254f32e77181c50ae514138bb57bbda3f192660754a01bb696b934ae71776c0,2939,True,keypress,testresponse_l_J,282,['Longer'],choice-response,Longer,6007b9b68ffa26e0d13be3ad,e300ms_delay_2_56,4599,264,e_maintaskTrials_2_l
5ff0a827571a1af480c17fdc,Filled_empty,0,9254f32e77181c50ae514138bb57bbda3f192660754a01bb696b934ae71776c0,2939,True,keypress,testresponse_l_J,297,['Longer'],choice-response,Longer,6007b9b68ffa26e0d13be3ad,e300ms_delay_2_84,4697,265,e_maintaskTrials_2_l
5ff0a827571a1af480c17fdc,Filled_empty,0,9254f32e77181c50ae514138bb57bbda3f192660754a01bb696b934ae71776c0,2939,False,keypress,testresponse_s_F,356,['Shorter'],choice-response,Longer,6007b9b68ffa26e0d13be3ad,e300ms_delay_2_83,4700,266,e_maintaskTrials_2_s
5ff0a827571a1af480c17fdc,Filled_empty,0,9254f32e77181c50ae514138bb57bbda3f192660754a01bb696b934ae71776c0,2939,True,keypress,testresponse_l_J,246,['Longer'],choice-response,Longer,6007b9b68ffa26e0d13be3ad,e300ms_delay_2_95,4766,267,e_maintaskTrials_2_l
5ff0a827571a1af480c17fdc,Filled_empty,0,9254f32e77181c50ae514138bb57bbda3f192660754a01bb696b934ae71776c0,2939,True,keypress,testresponse_l_J,397,['Longer'],choice-response,Longer,6007b9b68ffa26e0d13be3ad,e300ms_delay_2_96,4920,268,e_maintaskTrials_2_l
5ff0a827571a1af480c17fdc,Filled_empty,0,9254f32e77181c50ae514138bb57bbda3f192660754a01bb696b934ae71776c0,2939,True,keypress,testresponse_l_J,344,['Longer'],choice-response,Longer,6007b9b68ffa26e0d13be3ad,e300ms_delay_2_85,4777,269,e_maintaskTrials_2_l
5ff0a827571a1af480c17fdc,Filled_empty,0,9254f32e77181c50ae514138bb57bbda3f192660754a01bb696b934ae71776c0,2939,True,keypress,testresponse_s_F,571,['Shorter'],choice-response,Shorter,6007b9b68ffa26e0d13be3ad,e300ms_delay_2_53,5059,270,e_maintaskTrials_2_s
5ff0a827571a1af480c17fdc,Filled_empty,0,9254f32e77181c50ae514138bb57bbda3f192660754a01bb696b934ae71776c0,2939,True,keypress,testresponse_s_F,252,['Shorter'],choice-response,Shorter,6007b9b68ffa26e0d13be3ad,e300ms_delay_2_52,4534,271,e_maintaskTrials_2_s
5ff0a827571a1af480c17fdc,Filled_empty,0,9254f32e77181c50ae514138bb57bbda3f192660754a01bb696b934ae71776c0,2939,False,keypress,testresponse_l_J,134,['Longer'],choice-response,Shorter,6007b9b68ffa26e0d13be3ad,e300ms_delay_2_54,4439,272,e_maintaskTrials_2_l
5ff0a827571a1af480c17fdc,Filled_empty,0,9254f32e77181c50ae514138bb57bbda3f192660754a01bb696b934ae71776c0,2939,True,keypress,testresponse_s_F,649,['Shorter'],choice-response,Shorter,6007b9b68ffa26e0d13be3ad,e300ms_delay_2_82,5006,273,e_maintaskTrials_2_s
5ff0a827571a1af480c17fdc,Filled_empty,0,9254f32e77181c50ae514138bb57bbda3f192660754a01bb696b934ae71776c0,2939,True,keypress,testresponse_s_F,193,['Shorter'],choice-response,Shorter,6007b9b68ffa26e0d13be3ad,e300ms_delay_2_51,4419,274,e_maintaskTrials_2_s
5ff0a827571a1af480c17fdc,Filled_empty,0,9254f32e77181c50ae514138bb57bbda3f192660754a01bb696b934ae71776c0,2939,False,keypress,testresponse_s_F,313,['Shorter'],choice-response,Longer,6007b9b68ffa26e0d13be3ad,e300ms_delay_2_93,5166,275,e_maintaskTrials_2_s
5ff0a827571a1af480c17fdc,Filled_empty,0,9254f32e77181c50ae514138bb57bbda3f192660754a01bb696b934ae71776c0,2939,True,keypress,testresponse_s_F,486,['Shorter'],choice-response,Shorter,6007b9b68ffa26e0d13be3ad,e300ms_delay_2_91,4983,276,e_maintaskTrials_2_s
5ff0a827571a1af480c17fdc,Filled_empty,0,9254f32e77181c50ae514138bb57bbda3f192660754a01bb696b934ae71776c0,2939,True,keypress,testresponse_l_J,401,['Longer'],choice-response,Longer,6007b9b68ffa26e0d13be3ad,e300ms_delay_2_94,5240,277,e_maintaskTrials_2_l
5ff0a827571a1af480c17fdc,Filled_empty,0,9254f32e77181c50ae514138bb57bbda3f192660754a01bb696b934ae71776c0,2939,True,keypress,testresponse_s_F,547,['Shorter'],choice-response,Shorter,6007b9b68ffa26e0d13be3ad,e300ms_delay_2_81,4849,278,e_maintaskTrials_2_s
5ff0a827571a1af480c17fdc,Filled_empty,0,9254f32e77181c50ae514138bb57bbda3f192660754a01bb696b934ae71776c0,2939,True,keypress,testresponse_l_J,1250,['Longer'],choice-response,Longer,6007b9b68ffa26e0d13be3ad,e300ms_delay_2_86,5964,279,e_maintaskTrials_2_l
5ff0a827571a1af480c17fdc,Filled_empty,0,9254f32e77181c50ae514138bb57bbda3f192660754a01bb696b934ae71776c0,2939,True,keypress,testresponse_l_J,706,['Longer'],choice-response,Longer,6007b9b68ffa26e0d13be3ad,e300ms_delay_2_95,5229,280,e_maintaskTrials_2_l
5ff0a827571a1af480c17fdc,Filled_empty,0,9254f32e77181c50ae514138bb57bbda3f192660754a01bb696b934ae71776c0,2939,True,keypress,testresponse_l_J,1488,['Longer'],choice-response,Longer,6007b9b68ffa26e0d13be3ad,e300ms_delay_2_56,5805,281,e_maintaskTrials_2_l
5ff0a827571a1af480c17fdc,Filled_empty,0,9254f32e77181c50ae514138bb57bbda3f192660754a01bb696b934ae71776c0,2939,True,keypress,testresponse_l_J,374,['Longer'],choice-response,Longer,6007b9b68ffa26e0d13be3ad,e300ms_delay_2_84,4849,282,e_maintaskTrials_2_l
5ff0a827571a1af480c17fdc,Filled_empty,0,9254f32e77181c50ae514138bb57bbda3f192660754a01bb696b934ae71776c0,2939,True,keypress,testresponse_l_J,1224,['Longer'],choice-response,Longer,6007b9b68ffa26e0d13be3ad,e300ms_delay_2_55,5535,283,e_maintaskTrials_2_l
5ff0a827571a1af480c17fdc,Filled_empty,0,9254f32e77181c50ae514138bb57bbda3f192660754a01bb696b934ae71776c0,2939,True,keypress,testresponse_s_F,336,['Shorter'],choice-response,Shorter,6007b9b68ffa26e0d13be3ad,e300ms_delay_2_92,5288,284,e_maintaskTrials_2_s
5ff0a827571a1af480c17fdc,Filled_empty,0,9254f32e77181c50ae514138bb57bbda3f192660754a01bb696b934ae71776c0,2939,True,keypress,testresponse_s_F,572,['Shorter'],choice-response,Shorter,6007b9b68ffa26e0d13be3ad,e300ms_delay_2_83,4941,285,e_maintaskTrials_2_s
5ff0a827571a1af480c17fdc,Filled_empty,0,9254f32e77181c50ae514138bb57bbda3f192660754a01bb696b934ae71776c0,2939,True,keypress,testresponse_l_J,566,['Longer'],choice-response,Longer,6007b9b68ffa26e0d13be3ad,e300ms_delay_2_96,5082,286,e_maintaskTrials_2_l
5ff0a827571a1af480c17fdc,Filled_empty,0,9254f32e77181c50ae514138bb57bbda3f192660754a01bb696b934ae71776c0,2939,True,keypress,testresponse_s_F,198,['Shorter'],choice-response,Shorter,6007b9b68ffa26e0d13be3ad,e300ms_delay_2_51,4401,287,e_maintaskTrials_2_s
5ff0a827571a1af480c17fdc,Filled_empty,0,9254f32e77181c50ae514138bb57bbda3f192660754a01bb696b934ae71776c0,2939,False,keypress,testresponse_l_J,1630,['Longer'],choice-response,Shorter,6007b9b68ffa26e0d13be3ad,e300ms_delay_2_86,6545,288,e_maintaskTrials_2_l
5ff0a827571a1af480c17fdc,Filled_empty,0,9254f32e77181c50ae514138bb57bbda3f192660754a01bb696b934ae71776c0,2939,True,keypress,testresponse_s_F,410,['Shorter'],choice-response,Shorter,6007b9b68ffa26e0d13be3ad,e300ms_delay_2_81,4742,289,e_maintaskTrials_2_s
5ff0a827571a1af480c17fdc,Filled_empty,0,9254f32e77181c50ae514138bb57bbda3f192660754a01bb696b934ae71776c0,2939,True,keypress,testresponse_s_F,312,['Shorter'],choice-response,Shorter,6007b9b68ffa26e0d13be3ad,e300ms_delay_2_83,4690,290,e_maintaskTrials_2_s
5ff0a827571a1af480c17fdc,Filled_empty,0,9254f32e77181c50ae514138bb57bbda3f192660754a01bb696b934ae71776c0,2939,False,keypress,testresponse_l_J,626,['Longer'],choice-response,Shorter,6007b9b68ffa26e0d13be3ad,e300ms_delay_2_84,5423,291,e_maintaskTrials_2_l
5ff0a827571a1af480c17fdc,Filled_empty,0,9254f32e77181c50ae514138bb57bbda3f192660754a01bb696b934ae71776c0,2939,False,keypress,testresponse_s_F,307,['Shorter'],choice-response,Longer,6007b9b68ffa26e0d13be3ad,e300ms_delay_2_92,4985,292,e_maintaskTrials_2_s
5ff0a827571a1af480c17fdc,Filled_empty,0,9254f32e77181c50ae514138bb57bbda3f192660754a01bb696b934ae71776c0,2939,False,keypress,testresponse_s_F,848,['Shorter'],choice-response,Longer,6007b9b68ffa26e0d13be3ad,e300ms_delay_2_93,5522,293,e_maintaskTrials_2_s
5ff0a827571a1af480c17fdc,Filled_empty,0,9254f32e77181c50ae514138bb57bbda3f192660754a01bb696b934ae71776c0,2939,False,keypress,testresponse_l_J,1065,['Longer'],choice-response,Shorter,6007b9b68ffa26e0d13be3ad,e300ms_delay_2_56,5367,294,e_maintaskTrials_2_l
5ff0a827571a1af480c17fdc,Filled_empty,0,9254f32e77181c50ae514138bb57bbda3f192660754a01bb696b934ae71776c0,2939,True,keypress,testresponse_l_J,973,['Longer'],choice-response,Longer,6007b9b68ffa26e0d13be3ad,e300ms_delay_2_96,5639,295,e_maintaskTrials_2_l
5ff0a827571a1af480c17fdc,Filled_empty,0,9254f32e77181c50ae514138bb57bbda3f192660754a01bb696b934ae71776c0,2939,False,keypress,testresponse_s_F,1018,['Shorter'],choice-response,Longer,6007b9b68ffa26e0d13be3ad,e300ms_delay_2_82,5368,296,e_maintaskTrials_2_s
5ff0a827571a1af480c17fdc,Filled_empty,0,9254f32e77181c50ae514138bb57bbda3f192660754a01bb696b934ae71776c0,2939,False,keypress,testresponse_l_J,249,['Longer'],choice-response,Shorter,6007b9b68ffa26e0d13be3ad,e300ms_delay_2_55,4746,297,e_maintaskTrials_2_l
5ff0a827571a1af480c17fdc,Filled_empty,0,9254f32e77181c50ae514138bb57bbda3f192660754a01bb696b934ae71776c0,2939,True,keypress,testresponse_s_F,2082,['Shorter'],choice-response,Shorter,6007b9b68ffa26e0d13be3ad,e300ms_delay_2_91,6451,298,e_maintaskTrials_2_s
5ff0a827571a1af480c17fdc,Filled_empty,0,9254f32e77181c50ae514138bb57bbda3f192660754a01bb696b934ae71776c0,2939,False,keypress,testresponse_l_J,146,['Longer'],choice-response,Shorter,6007b9b68ffa26e0d13be3ad,e300ms_delay_2_54,4412,299,e_maintaskTrials_2_l
5ff0a827571a1af480c17fdc,Filled_empty,0,9254f32e77181c50ae514138bb57bbda3f192660754a01bb696b934ae71776c0,2939,True,keypress,testresponse_s_F,931,['Shorter'],choice-response,Shorter,6007b9b68ffa26e0d13be3ad,e300ms_delay_2_52,5191,300,e_maintaskTrials_2_s
5ff0a827571a1af480c17fdc,Filled_empty,0,9254f32e77181c50ae514138bb57bbda3f192660754a01bb696b934ae71776c0,2939,False,keypress,testresponse_l_J,1163,['Longer'],choice-response,Shorter,6007b9b68ffa26e0d13be3ad,e300ms_delay_2_95,5641,301,e_maintaskTrials_2_l
5ff0a827571a1af480c17fdc,Filled_empty,0,9254f32e77181c50ae514138bb57bbda3f192660754a01bb696b934ae71776c0,2939,True,keypress,testresponse_s_F,1341,['Shorter'],choice-response,Shorter,6007b9b68ffa26e0d13be3ad,e300ms_delay_2_53,5650,302,e_maintaskTrials_2_s
5ff0a827571a1af480c17fdc,Filled_empty,0,9254f32e77181c50ae514138bb57bbda3f192660754a01bb696b934ae71776c0,2939,True,keypress,testresponse_l_J,324,['Longer'],choice-response,Longer,6007b9b68ffa26e0d13be3ad,e300ms_delay_2_85,4820,303,e_maintaskTrials_2_l
5ff0a827571a1af480c17fdc,Filled_empty,0,9254f32e77181c50ae514138bb57bbda3f192660754a01bb696b934ae71776c0,2939,True,keypress,testresponse_l_J,429,['Longer'],choice-response,Longer,6007b9b68ffa26e0d13be3ad,e300ms_delay_2_94,5107,304,e_maintaskTrials_2_l
5ff0a827571a1af480c17fdc,Filled_empty,0,9254f32e77181c50ae514138bb57bbda3f192660754a01bb696b934ae71776c0,2939,True,keypress,testresponse_l_J,1215,['Longer'],choice-response,Longer,6007b9b68ffa26e0d13be3ad,e300ms_delay_2_85,5597,305,e_maintaskTrials_2_l
5ff0a827571a1af480c17fdc,Filled_empty,0,9254f32e77181c50ae514138bb57bbda3f192660754a01bb696b934ae71776c0,2939,True,keypress,testresponse_l_J,532,['Longer'],choice-response,Longer,6007b9b68ffa26e0d13be3ad,e300ms_delay_2_94,4975,306,e_maintaskTrials_2_l
5ff0a827571a1af480c17fdc,Filled_empty,0,9254f32e77181c50ae514138bb57bbda3f192660754a01bb696b934ae71776c0,2939,True,keypress,testresponse_l_J,398,['Longer'],choice-response,Longer,6007b9b68ffa26e0d13be3ad,e300ms_delay_2_95,4873,307,e_maintaskTrials_2_l
5ff0a827571a1af480c17fdc,Filled_empty,0,9254f32e77181c50ae514138bb57bbda3f192660754a01bb696b934ae71776c0,2939,False,keypress,testresponse_l_J,249,['Longer'],choice-response,Shorter,6007b9b68ffa26e0d13be3ad,e300ms_delay_2_54,4552,308,e_maintaskTrials_2_l
5ff0a827571a1af480c17fdc,Filled_empty,0,9254f32e77181c50ae514138bb57bbda3f192660754a01bb696b934ae71776c0,2939,True,keypress,testresponse_s_F,182,['Shorter'],choice-response,Shorter,6007b9b68ffa26e0d13be3ad,e300ms_delay_2_51,4461,309,e_maintaskTrials_2_s
5ff0a827571a1af480c17fdc,Filled_empty,0,9254f32e77181c50ae514138bb57bbda3f192660754a01bb696b934ae71776c0,2939,False,keypress,testresponse_s_F,1105,['Shorter'],choice-response,Longer,6007b9b68ffa26e0d13be3ad,e300ms_delay_2_53,5412,310,e_maintaskTrials_2_s
5ff0a827571a1af480c17fdc,Filled_empty,0,9254f32e77181c50ae514138bb57bbda3f192660754a01bb696b934ae71776c0,2939,False,keypress,testresponse_l_J,1998,['Longer'],choice-response,Shorter,6007b9b68ffa26e0d13be3ad,e300ms_delay_2_84,6405,311,e_maintaskTrials_2_l
5ff0a827571a1af480c17fdc,Filled_empty,0,9254f32e77181c50ae514138bb57bbda3f192660754a01bb696b934ae71776c0,2939,False,keypress,testresponse_l_J,727,['Longer'],choice-response,Shorter,6007b9b68ffa26e0d13be3ad,e300ms_delay_2_56,5115,312,e_maintaskTrials_2_l
5ff0a827571a1af480c17fdc,Filled_empty,0,9254f32e77181c50ae514138bb57bbda3f192660754a01bb696b934ae71776c0,2939,False,keypress,testresponse_s_F,2175,['Shorter'],choice-response,Longer,6007b9b68ffa26e0d13be3ad,e300ms_delay_2_83,6552,313,e_maintaskTrials_2_s
5ff0a827571a1af480c17fdc,Filled_empty,0,9254f32e77181c50ae514138bb57bbda3f192660754a01bb696b934ae71776c0,2939,True,keypress,testresponse_s_F,1195,['Shorter'],choice-response,Shorter,6007b9b68ffa26e0d13be3ad,e300ms_delay_2_91,6131,314,e_maintaskTrials_2_s
5ff0a827571a1af480c17fdc,Filled_empty,0,9254f32e77181c50ae514138bb57bbda3f192660754a01bb696b934ae71776c0,2939,False,keypress,testresponse_l_J,1405,['Longer'],choice-response,Shorter,6007b9b68ffa26e0d13be3ad,e300ms_delay_2_86,6309,315,e_maintaskTrials_2_l
5ff0a827571a1af480c17fdc,Filled_empty,0,9254f32e77181c50ae514138bb57bbda3f192660754a01bb696b934ae71776c0,2939,True,keypress,testresponse_s_F,617,['Shorter'],choice-response,Shorter,6007b9b68ffa26e0d13be3ad,e300ms_delay_2_81,5176,316,e_maintaskTrials_2_s
5ff0a827571a1af480c17fdc,Filled_empty,0,9254f32e77181c50ae514138bb57bbda3f192660754a01bb696b934ae71776c0,2939,False,keypress,testresponse_s_F,458,['Shorter'],choice-response,Longer,6007b9b68ffa26e0d13be3ad,e300ms_delay_2_82,5266,317,e_maintaskTrials_2_s
5ff0a827571a1af480c17fdc,Filled_empty,0,9254f32e77181c50ae514138bb57bbda3f192660754a01bb696b934ae71776c0,2939,True,keypress,testresponse_l_J,907,['Longer'],choice-response,Longer,6007b9b68ffa26e0d13be3ad,e300ms_delay_2_96,6110,318,e_maintaskTrials_2_l
5ff0a827571a1af480c17fdc,Filled_empty,0,9254f32e77181c50ae514138bb57bbda3f192660754a01bb696b934ae71776c0,2939,True,keypress,testresponse_s_F,774,['Shorter'],choice-response,Shorter,6007b9b68ffa26e0d13be3ad,e300ms_delay_2_92,5506,319,e_maintaskTrials_2_s
5ff0a827571a1af480c17fdc,Filled_empty,0,9254f32e77181c50ae514138bb57bbda3f192660754a01bb696b934ae71776c0,2939,False,keypress,testresponse_s_F,1908,['Shorter'],choice-response,Longer,6007b9b68ffa26e0d13be3ad,e300ms_delay_2_93,6942,320,e_maintaskTrials_2_s
5ff0a827571a1af480c17fdc,Filled_empty,0,9254f32e77181c50ae514138bb57bbda3f192660754a01bb696b934ae71776c0,2939,True,keypress,testresponse_s_F,2193,['Shorter'],choice-response,Shorter,6007b9b68ffa26e0d13be3ad,e300ms_delay_2_52,6837,321,e_maintaskTrials_2_s
5ff0a827571a1af480c17fdc,Filled_empty,0,9254f32e77181c50ae514138bb57bbda3f192660754a01bb696b934ae71776c0,2939,True,keypress,testresponse_l_J,1927,['Longer'],choice-response,Longer,6007b9b68ffa26e0d13be3ad,e300ms_delay_2_55,6822,322,e_maintaskTrials_2_l
5ff0a827571a1af480c17fdc,Filled_empty,0,9254f32e77181c50ae514138bb57bbda3f192660754a01bb696b934ae71776c0,2939,True,keypress,testresponse_s_F,1636,['Shorter'],choice-response,Shorter,6007b9b68ffa26e0d13be3ad,e300ms_delay_2_82,5987,323,e_maintaskTrials_2_s
5ff0a827571a1af480c17fdc,Filled_empty,0,9254f32e77181c50ae514138bb57bbda3f192660754a01bb696b934ae71776c0,2939,False,keypress,testresponse_s_F,771,['Shorter'],choice-response,Longer,6007b9b68ffa26e0d13be3ad,e300ms_delay_2_91,5159,324,e_maintaskTrials_2_s
5ff0a827571a1af480c17fdc,Filled_empty,0,9254f32e77181c50ae514138bb57bbda3f192660754a01bb696b934ae71776c0,2939,True,keypress,testresponse_s_F,1311,['Shorter'],choice-response,Shorter,6007b9b68ffa26e0d13be3ad,e300ms_delay_2_93,6156,325,e_maintaskTrials_2_s
5ff0a827571a1af480c17fdc,Filled_empty,0,9254f32e77181c50ae514138bb57bbda3f192660754a01bb696b934ae71776c0,2939,True,keypress,testresponse_s_F,738,['Shorter'],choice-response,Shorter,6007b9b68ffa26e0d13be3ad,e300ms_delay_2_52,5024,326,e_maintaskTrials_2_s
5ff0a827571a1af480c17fdc,Filled_empty,0,9254f32e77181c50ae514138bb57bbda3f192660754a01bb696b934ae71776c0,2939,False,keypress,testresponse_l_J,1409,['Longer'],choice-response,Shorter,6007b9b68ffa26e0d13be3ad,e300ms_delay_2_86,5925,327,e_maintaskTrials_2_l
5ff0a827571a1af480c17fdc,Filled_empty,0,9254f32e77181c50ae514138bb57bbda3f192660754a01bb696b934ae71776c0,2939,True,keypress,testresponse_l_J,693,['Longer'],choice-response,Longer,6007b9b68ffa26e0d13be3ad,e300ms_delay_2_94,5201,328,e_maintaskTrials_2_l
5ff0a827571a1af480c17fdc,Filled_empty,0,9254f32e77181c50ae514138bb57bbda3f192660754a01bb696b934ae71776c0,2939,True,keypress,testresponse_l_J,894,['Longer'],choice-response,Longer,6007b9b68ffa26e0d13be3ad,e300ms_delay_2_84,5243,329,e_maintaskTrials_2_l
5ff0a827571a1af480c17fdc,Filled_empty,0,9254f32e77181c50ae514138bb57bbda3f192660754a01bb696b934ae71776c0,2939,True,keypress,testresponse_s_F,503,['Shorter'],choice-response,Shorter,6007b9b68ffa26e0d13be3ad,e300ms_delay_2_92,4908,330,e_maintaskTrials_2_s
5ff0a827571a1af480c17fdc,Filled_empty,0,9254f32e77181c50ae514138bb57bbda3f192660754a01bb696b934ae71776c0,2939,False,keypress,testresponse_l_J,1348,['Longer'],choice-response,Shorter,6007b9b68ffa26e0d13be3ad,e300ms_delay_2_85,6206,331,e_maintaskTrials_2_l
5ff0a827571a1af480c17fdc,Filled_empty,0,9254f32e77181c50ae514138bb57bbda3f192660754a01bb696b934ae71776c0,2939,False,keypress,testresponse_l_J,771,['Longer'],choice-response,Shorter,6007b9b68ffa26e0d13be3ad,e300ms_delay_2_96,6343,332,e_maintaskTrials_2_l
5ff0a827571a1af480c17fdc,Filled_empty,0,9254f32e77181c50ae514138bb57bbda3f192660754a01bb696b934ae71776c0,2939,False,keypress,testresponse_l_J,704,['Longer'],choice-response,Shorter,6007b9b68ffa26e0d13be3ad,e300ms_delay_2_54,4993,333,e_maintaskTrials_2_l
5ff0a827571a1af480c17fdc,Filled_empty,0,9254f32e77181c50ae514138bb57bbda3f192660754a01bb696b934ae71776c0,2939,True,keypress,testresponse_l_J,496,['Longer'],choice-response,Longer,6007b9b68ffa26e0d13be3ad,e300ms_delay_2_95,5434,334,e_maintaskTrials_2_l
5ff0a827571a1af480c17fdc,Filled_empty,0,9254f32e77181c50ae514138bb57bbda3f192660754a01bb696b934ae71776c0,2939,False,keypress,testresponse_s_F,1328,['Shorter'],choice-response,Longer,6007b9b68ffa26e0d13be3ad,e300ms_delay_2_83,5702,335,e_maintaskTrials_2_s
5ff0a827571a1af480c17fdc,Filled_empty,0,9254f32e77181c50ae514138bb57bbda3f192660754a01bb696b934ae71776c0,2939,True,keypress,testresponse_s_F,1259,['Shorter'],choice-response,Shorter,6007b9b68ffa26e0d13be3ad,e300ms_delay_2_81,6039,336,e_maintaskTrials_2_s
5ff0a827571a1af480c17fdc,Filled_empty,0,9254f32e77181c50ae514138bb57bbda3f192660754a01bb696b934ae71776c0,2939,True,keypress,testresponse_s_F,348,['Shorter'],choice-response,Shorter,6007b9b68ffa26e0d13be3ad,e300ms_delay_2_51,4581,337,e_maintaskTrials_2_s
5ff0a827571a1af480c17fdc,Filled_empty,0,9254f32e77181c50ae514138bb57bbda3f192660754a01bb696b934ae71776c0,2939,False,keypress,testresponse_l_J,245,['Longer'],choice-response,Shorter,6007b9b68ffa26e0d13be3ad,e300ms_delay_2_56,4699,338,e_maintaskTrials_2_l
5ff0a827571a1af480c17fdc,Filled_empty,0,9254f32e77181c50ae514138bb57bbda3f192660754a01bb696b934ae71776c0,2939,True,keypress,testresponse_s_F,444,['Shorter'],choice-response,Shorter,6007b9b68ffa26e0d13be3ad,e300ms_delay_2_53,4984,339,e_maintaskTrials_2_s
5ff0a827571a1af480c17fdc,Filled_empty,0,9254f32e77181c50ae514138bb57bbda3f192660754a01bb696b934ae71776c0,2939,True,keypress,testresponse_l_J,1014,['Longer'],choice-response,Longer,6007b9b68ffa26e0d13be3ad,e300ms_delay_2_55,5889,340,e_maintaskTrials_2_l
5ff0a827571a1af480c17fdc,Filled_empty,0,9254f32e77181c50ae514138bb57bbda3f192660754a01bb696b934ae71776c0,2939,False,keypress,testresponse_s_F,957,['Shorter'],choice-response,Longer,6007b9b68ffa26e0d13be3ad,e300ms_delay_2_81,5284,341,e_maintaskTrials_2_s
5ff0a827571a1af480c17fdc,Filled_empty,0,9254f32e77181c50ae514138bb57bbda3f192660754a01bb696b934ae71776c0,2939,False,keypress,testresponse_l_J,1533,['Longer'],choice-response,Shorter,6007b9b68ffa26e0d13be3ad,e300ms_delay_2_84,5938,342,e_maintaskTrials_2_l
5ff0a827571a1af480c17fdc,Filled_empty,0,9254f32e77181c50ae514138bb57bbda3f192660754a01bb696b934ae71776c0,2939,False,keypress,testresponse_l_J,240,['Longer'],choice-response,Shorter,6007b9b68ffa26e0d13be3ad,e300ms_delay_2_54,4965,343,e_maintaskTrials_2_l
5ff0a827571a1af480c17fdc,Filled_empty,0,9254f32e77181c50ae514138bb57bbda3f192660754a01bb696b934ae71776c0,2939,False,keypress,testresponse_l_J,1954,['Longer'],choice-response,Shorter,6007b9b68ffa26e0d13be3ad,e300ms_delay_2_56,6716,344,e_maintaskTrials_2_l
5ff0a827571a1af480c17fdc,Filled_empty,0,9254f32e77181c50ae514138bb57bbda3f192660754a01bb696b934ae71776c0,2939,True,keypress,testresponse_s_F,1245,['Shorter'],choice-response,Shorter,6007b9b68ffa26e0d13be3ad,e300ms_delay_2_83,6105,345,e_maintaskTrials_2_s
5ff0a827571a1af480c17fdc,Filled_empty,0,9254f32e77181c50ae514138bb57bbda3f192660754a01bb696b934ae71776c0,2939,True,keypress,testresponse_s_F,341,['Shorter'],choice-response,Shorter,6007b9b68ffa26e0d13be3ad,e300ms_delay_2_53,4586,346,e_maintaskTrials_2_s
5ff0a827571a1af480c17fdc,Filled_empty,0,9254f32e77181c50ae514138bb57bbda3f192660754a01bb696b934ae71776c0,2939,True,keypress,testresponse_l_J,325,['Longer'],choice-response,Longer,6007b9b68ffa26e0d13be3ad,e300ms_delay_2_96,5261,347,e_maintaskTrials_2_l
5ff0a827571a1af480c17fdc,Filled_empty,0,9254f32e77181c50ae514138bb57bbda3f192660754a01bb696b934ae71776c0,2939,True,keypress,testresponse_s_F,369,['Shorter'],choice-response,Shorter,6007b9b68ffa26e0d13be3ad,e300ms_delay_2_51,4593,348,e_maintaskTrials_2_s
5ff0a827571a1af480c17fdc,Filled_empty,0,9254f32e77181c50ae514138bb57bbda3f192660754a01bb696b934ae71776c0,2939,True,keypress,testresponse_l_J,1244,['Longer'],choice-response,Longer,6007b9b68ffa26e0d13be3ad,e300ms_delay_2_95,6108,349,e_maintaskTrials_2_l
5ff0a827571a1af480c17fdc,Filled_empty,0,9254f32e77181c50ae514138bb57bbda3f192660754a01bb696b934ae71776c0,2939,True,keypress,testresponse_l_J,397,['Longer'],choice-response,Longer,6007b9b68ffa26e0d13be3ad,e300ms_delay_2_86,5284,350,e_maintaskTrials_2_l
5ff0a827571a1af480c17fdc,Filled_empty,0,9254f32e77181c50ae514138bb57bbda3f192660754a01bb696b934ae71776c0,2939,True,keypress,testresponse_l_J,472,['Longer'],choice-response,Longer,6007b9b68ffa26e0d13be3ad,e300ms_delay_2_94,5162,351,e_maintaskTrials_2_l
5ff0a827571a1af480c17fdc,Filled_empty,0,9254f32e77181c50ae514138bb57bbda3f192660754a01bb696b934ae71776c0,2939,False,keypress,testresponse_l_J,135,['Longer'],choice-response,Shorter,6007b9b68ffa26e0d13be3ad,e300ms_delay_2_55,4448,352,e_maintaskTrials_2_l
5ff0a827571a1af480c17fdc,Filled_empty,0,9254f32e77181c50ae514138bb57bbda3f192660754a01bb696b934ae71776c0,2939,True,keypress,testresponse_l_J,747,['Longer'],choice-response,Longer,6007b9b68ffa26e0d13be3ad,e300ms_delay_2_85,5142,353,e_maintaskTrials_2_l
5ff0a827571a1af480c17fdc,Filled_empty,0,9254f32e77181c50ae514138bb57bbda3f192660754a01bb696b934ae71776c0,2939,False,keypress,testresponse_s_F,977,['Shorter'],choice-response,Longer,6007b9b68ffa26e0d13be3ad,e300ms_delay_2_93,5420,354,e_maintaskTrials_2_s
5ff0a827571a1af480c17fdc,Filled_empty,0,9254f32e77181c50ae514138bb57bbda3f192660754a01bb696b934ae71776c0,2939,True,keypress,testresponse_s_F,629,['Shorter'],choice-response,Shorter,6007b9b68ffa26e0d13be3ad,e300ms_delay_2_91,5036,355,e_maintaskTrials_2_s
5ff0a827571a1af480c17fdc,Filled_empty,0,9254f32e77181c50ae514138bb57bbda3f192660754a01bb696b934ae71776c0,2939,True,keypress,testresponse_s_F,1096,['Shorter'],choice-response,Shorter,6007b9b68ffa26e0d13be3ad,e300ms_delay_2_52,5852,356,e_maintaskTrials_2_s
5ff0a827571a1af480c17fdc,Filled_empty,0,9254f32e77181c50ae514138bb57bbda3f192660754a01bb696b934ae71776c0,2939,True,keypress,testresponse_s_F,720,['Shorter'],choice-response,Shorter,6007b9b68ffa26e0d13be3ad,e300ms_delay_2_82,5263,357,e_maintaskTrials_2_s
5ff0a827571a1af480c17fdc,Filled_empty,0,9254f32e77181c50ae514138bb57bbda3f192660754a01bb696b934ae71776c0,2939,True,keypress,testresponse_s_F,547,['Shorter'],choice-response,Shorter,6007b9b68ffa26e0d13be3ad,e300ms_delay_2_92,4975,358,e_maintaskTrials_2_s
5ff0a827571a1af480c17fdc,Filled_empty,0,9254f32e77181c50ae514138bb57bbda3f192660754a01bb696b934ae71776c0,2939,False,keypress,testresponse_l_J,879,['Longer'],choice-response,Shorter,6007b9b68ffa26e0d13be3ad,e300ms_delay_2_55,5975,359,e_maintaskTrials_2_l
5ff0a827571a1af480c17fdc,Filled_empty,0,9254f32e77181c50ae514138bb57bbda3f192660754a01bb696b934ae71776c0,2939,False,keypress,testresponse_l_J,831,['Longer'],choice-response,Shorter,6007b9b68ffa26e0d13be3ad,e300ms_delay_2_85,5662,360,e_maintaskTrials_2_l
5ff0a827571a1af480c17fdc,Filled_empty,0,9254f32e77181c50ae514138bb57bbda3f192660754a01bb696b934ae71776c0,2939,True,keypress,testresponse_s_F,738,['Shorter'],choice-response,Shorter,6007b9b68ffa26e0d13be3ad,e300ms_delay_2_93,5680,361,e_maintaskTrials_2_s
5ff0a827571a1af480c17fdc,Filled_empty,0,9254f32e77181c50ae514138bb57bbda3f192660754a01bb696b934ae71776c0,2939,False,keypress,testresponse_l_J,228,['Longer'],choice-response,Shorter,6007b9b68ffa26e0d13be3ad,e300ms_delay_2_54,4998,362,e_maintaskTrials_2_l
5ff0a827571a1af480c17fdc,Filled_empty,0,9254f32e77181c50ae514138bb57bbda3f192660754a01bb696b934ae71776c0,2939,True,keypress,testresponse_s_F,1014,['Shorter'],choice-response,Shorter,6007b9b68ffa26e0d13be3ad,e300ms_delay_2_91,5910,363,e_maintaskTrials_2_s
5ff0a827571a1af480c17fdc,Filled_empty,0,9254f32e77181c50ae514138bb57bbda3f192660754a01bb696b934ae71776c0,2939,False,keypress,testresponse_l_J,1919,['Longer'],choice-response,Shorter,6007b9b68ffa26e0d13be3ad,e300ms_delay_2_86,6326,364,e_maintaskTrials_2_l
5ff0a827571a1af480c17fdc,Filled_empty,0,9254f32e77181c50ae514138bb57bbda3f192660754a01bb696b934ae71776c0,2939,True,keypress,testresponse_s_F,1741,['Shorter'],choice-response,Shorter,6007b9b68ffa26e0d13be3ad,e300ms_delay_2_81,6118,365,e_maintaskTrials_2_s
5ff0a827571a1af480c17fdc,Filled_empty,0,9254f32e77181c50ae514138bb57bbda3f192660754a01bb696b934ae71776c0,2939,True,keypress,testresponse_s_F,483,['Shorter'],choice-response,Shorter,6007b9b68ffa26e0d13be3ad,e300ms_delay_2_52,5146,366,e_maintaskTrials_2_s
5ff0a827571a1af480c17fdc,Filled_empty,0,9254f32e77181c50ae514138bb57bbda3f192660754a01bb696b934ae71776c0,2939,False,keypress,testresponse_s_F,686,['Shorter'],choice-response,Longer,6007b9b68ffa26e0d13be3ad,e300ms_delay_2_83,5114,367,e_maintaskTrials_2_s
5ff0a827571a1af480c17fdc,Filled_empty,0,9254f32e77181c50ae514138bb57bbda3f192660754a01bb696b934ae71776c0,2939,True,keypress,testresponse_s_F,591,['Shorter'],choice-response,Shorter,6007b9b68ffa26e0d13be3ad,e300ms_delay_2_53,4900,368,e_maintaskTrials_2_s
5ff0a827571a1af480c17fdc,Filled_empty,0,9254f32e77181c50ae514138bb57bbda3f192660754a01bb696b934ae71776c0,2939,True,keypress,testresponse_s_F,1486,['Shorter'],choice-response,Shorter,6007b9b68ffa26e0d13be3ad,e300ms_delay_2_92,6317,369,e_maintaskTrials_2_s
5ff0a827571a1af480c17fdc,Filled_empty,0,9254f32e77181c50ae514138bb57bbda3f192660754a01bb696b934ae71776c0,2939,True,keypress,testresponse_s_F,1214,['Shorter'],choice-response,Shorter,6007b9b68ffa26e0d13be3ad,e300ms_delay_2_82,6024,370,e_maintaskTrials_2_s
5ff0a827571a1af480c17fdc,Filled_empty,0,9254f32e77181c50ae514138bb57bbda3f192660754a01bb696b934ae71776c0,2939,True,keypress,testresponse_s_F,2249,['Shorter'],choice-response,Shorter,6007b9b68ffa26e0d13be3ad,e300ms_delay_2_51,7033,371,e_maintaskTrials_2_s
5ff0a827571a1af480c17fdc,Filled_empty,0,9254f32e77181c50ae514138bb57bbda3f192660754a01bb696b934ae71776c0,2939,False,keypress,testresponse_l_J,1711,['Longer'],choice-response,Shorter,6007b9b68ffa26e0d13be3ad,e300ms_delay_2_56,6037,372,e_maintaskTrials_2_l
5ff0a827571a1af480c17fdc,Filled_empty,0,9254f32e77181c50ae514138bb57bbda3f192660754a01bb696b934ae71776c0,2939,False,keypress,testresponse_l_J,659,['Longer'],choice-response,Shorter,6007b9b68ffa26e0d13be3ad,e300ms_delay_2_84,5479,373,e_maintaskTrials_2_l
5ff0a827571a1af480c17fdc,Filled_empty,0,9254f32e77181c50ae514138bb57bbda3f192660754a01bb696b934ae71776c0,2939,False,keypress,testresponse_l_J,1060,['Longer'],choice-response,Shorter,6007b9b68ffa26e0d13be3ad,e300ms_delay_2_94,5524,374,e_maintaskTrials_2_l
5ff0a827571a1af480c17fdc,Filled_empty,0,9254f32e77181c50ae514138bb57bbda3f192660754a01bb696b934ae71776c0,2939,True,keypress,testresponse_l_J,975,['Longer'],choice-response,Longer,6007b9b68ffa26e0d13be3ad,e300ms_delay_2_96,5721,375,e_maintaskTrials_2_l
5ff0a827571a1af480c17fdc,Filled_empty,0,9254f32e77181c50ae514138bb57bbda3f192660754a01bb696b934ae71776c0,2939,True,keypress,testresponse_l_J,1075,['Longer'],choice-response,Longer,6007b9b68ffa26e0d13be3ad,e300ms_delay_2_95,5563,376,e_maintaskTrials_2_l
5ff0a827571a1af480c17fdc,Filled_empty,0,9254f32e77181c50ae514138bb57bbda3f192660754a01bb696b934ae71776c0,2939,True,keypress,testresponse_s_F,623,['Shorter'],choice-response,Shorter,6007b9b68ffa26e0d13be3ad,e300ms_delay_2_82,5015,377,e_maintaskTrials_2_s
5ff0a827571a1af480c17fdc,Filled_empty,0,9254f32e77181c50ae514138bb57bbda3f192660754a01bb696b934ae71776c0,2939,False,keypress,testresponse_l_J,1312,['Longer'],choice-response,Shorter,6007b9b68ffa26e0d13be3ad,e300ms_delay_2_54,6066,378,e_maintaskTrials_2_l
5ff0a827571a1af480c17fdc,Filled_empty,0,9254f32e77181c50ae514138bb57bbda3f192660754a01bb696b934ae71776c0,2939,True,keypress,testresponse_s_F,2449,['Shorter'],choice-response,Shorter,6007b9b68ffa26e0d13be3ad,e300ms_delay_2_92,6924,379,e_maintaskTrials_2_s
5ff0a827571a1af480c17fdc,Filled_empty,0,9254f32e77181c50ae514138bb57bbda3f192660754a01bb696b934ae71776c0,2939,True,keypress,testresponse_s_F,1966,['Shorter'],choice-response,Shorter,6007b9b68ffa26e0d13be3ad,e300ms_delay_2_83,7031,380,e_maintaskTrials_2_s
5ff0a827571a1af480c17fdc,Filled_empty,0,9254f32e77181c50ae514138bb57bbda3f192660754a01bb696b934ae71776c0,2939,True,keypress,testresponse_l_J,1164,['Longer'],choice-response,Longer,6007b9b68ffa26e0d13be3ad,e300ms_delay_2_84,5577,381,e_maintaskTrials_2_l
5ff0a827571a1af480c17fdc,Filled_empty,0,9254f32e77181c50ae514138bb57bbda3f192660754a01bb696b934ae71776c0,2939,False,keypress,testresponse_l_J,822,['Longer'],choice-response,Shorter,6007b9b68ffa26e0d13be3ad,e300ms_delay_2_95,5338,382,e_maintaskTrials_2_l
5ff0a827571a1af480c17fdc,Filled_empty,0,9254f32e77181c50ae514138bb57bbda3f192660754a01bb696b934ae71776c0,2939,True,keypress,testresponse_s_F,996,['Shorter'],choice-response,Shorter,6007b9b68ffa26e0d13be3ad,e300ms_delay_2_52,5316,383,e_maintaskTrials_2_s
5ff0a827571a1af480c17fdc,Filled_empty,0,9254f32e77181c50ae514138bb57bbda3f192660754a01bb696b934ae71776c0,2939,False,keypress,testresponse_s_F,796,['Shorter'],choice-response,Longer,6007b9b68ffa26e0d13be3ad,e300ms_delay_2_93,5266,384,e_maintaskTrials_2_s
5ff0a827571a1af480c17fdc,Filled_empty,0,9254f32e77181c50ae514138bb57bbda3f192660754a01bb696b934ae71776c0,2939,True,keypress,testresponse_l_J,507,['Longer'],choice-response,Longer,6007b9b68ffa26e0d13be3ad,e300ms_delay_2_86,5304,385,e_maintaskTrials_2_l
5ff0a827571a1af480c17fdc,Filled_empty,0,9254f32e77181c50ae514138bb57bbda3f192660754a01bb696b934ae71776c0,2939,False,keypress,testresponse_s_F,247,['Shorter'],choice-response,Longer,6007b9b68ffa26e0d13be3ad,e300ms_delay_2_53,4907,386,e_maintaskTrials_2_s
5ff0a827571a1af480c17fdc,Filled_empty,0,9254f32e77181c50ae514138bb57bbda3f192660754a01bb696b934ae71776c0,2939,True,keypress,testresponse_s_F,509,['Shorter'],choice-response,Shorter,6007b9b68ffa26e0d13be3ad,e300ms_delay_2_91,5045,387,e_maintaskTrials_2_s
5ff0a827571a1af480c17fdc,Filled_empty,0,9254f32e77181c50ae514138bb57bbda3f192660754a01bb696b934ae71776c0,2939,True,keypress,testresponse_s_F,633,['Shorter'],choice-response,Shorter,6007b9b68ffa26e0d13be3ad,e300ms_delay_2_51,5289,388,e_maintaskTrials_2_s
5ff0a827571a1af480c17fdc,Filled_empty,0,9254f32e77181c50ae514138bb57bbda3f192660754a01bb696b934ae71776c0,2939,False,keypress,testresponse_l_J,704,['Longer'],choice-response,Shorter,6007b9b68ffa26e0d13be3ad,e300ms_delay_2_94,5174,389,e_maintaskTrials_2_l
5ff0a827571a1af480c17fdc,Filled_empty,0,9254f32e77181c50ae514138bb57bbda3f192660754a01bb696b934ae71776c0,2939,False,keypress,testresponse_l_J,657,['Longer'],choice-response,Shorter,6007b9b68ffa26e0d13be3ad,e300ms_delay_2_56,5224,390,e_maintaskTrials_2_l
5ff0a827571a1af480c17fdc,Filled_empty,0,9254f32e77181c50ae514138bb57bbda3f192660754a01bb696b934ae71776c0,2939,True,keypress,testresponse_l_J,755,['Longer'],choice-response,Longer,6007b9b68ffa26e0d13be3ad,e300ms_delay_2_85,5200,391,e_maintaskTrials_2_l
5ff0a827571a1af480c17fdc,Filled_empty,0,9254f32e77181c50ae514138bb57bbda3f192660754a01bb696b934ae71776c0,2939,True,keypress,testresponse_s_F,625,['Shorter'],choice-response,Shorter,6007b9b68ffa26e0d13be3ad,e300ms_delay_2_81,4993,392,e_maintaskTrials_2_s
