expt_id,group_id,network_error_repeat,participant_id,participation_duration,response_correct,response_mode,response_name,response_rt,response_target,response_type,response_value,session_id,session_start_time,stimuli_presented,trial_duration,trial_num,trial_template
64f35663abb040f67b21100b,default,0,2ab1f3c00a463a452d042a457c55214abd7f82feac1b545f6dcc94d6affdb2c1,1035.4209,TRUE,keypress,exampleRsp_tone,1023,['Out of time'],choice-response,Out of time,64ff5d15220cf18479301572,2023-09-11 14:31:47-04:00,tone1_150,9758,1,example_tone
64f35663abb040f67b21100b,default,0,2ab1f3c00a463a452d042a457c55214abd7f82feac1b545f6dcc94d6affdb2c1,1035.4209,TRUE,keypress,exampleRsp_lab,356,['Out of time'],choice-response,Out of time,64ff5d15220cf18479301572,2023-09-11 14:31:47-04:00,add8_150,8609,2,example_lab
64f35663abb040f67b21100b,default,0,2ab1f3c00a463a452d042a457c55214abd7f82feac1b545f6dcc94d6affdb2c1,1035.4209,TRUE,keypress,exampleRsp_lab,158,['Out of time'],choice-response,Out of time,64ff5d15220cf18479301572,2023-09-11 14:31:47-04:00,add1_150,8685,3,example_lab
64f35663abb040f67b21100b,default,0,2ab1f3c00a463a452d042a457c55214abd7f82feac1b545f6dcc94d6affdb2c1,1035.4209,TRUE,keypress,exampleRsp_lab,475,['Out of time'],choice-response,Out of time,64ff5d15220cf18479301572,2023-09-11 14:31:47-04:00,lab8_150,9300,4,example_lab
64f35663abb040f67b21100b,default,0,2ab1f3c00a463a452d042a457c55214abd7f82feac1b545f6dcc94d6affdb2c1,1035.4209,TRUE,keypress,exampleRsp_lab,1003,['Out of time'],choice-response,Out of time,64ff5d15220cf18479301572,2023-09-11 14:31:47-04:00,lab1_150,9297,5,example_lab
64f35663abb040f67b21100b,default,0,2ab1f3c00a463a452d042a457c55214abd7f82feac1b545f6dcc94d6affdb2c1,1035.4209,TRUE,keypress,exampleRsp_tone,2439,['Out of time'],choice-response,Out of time,64ff5d15220cf18479301572,2023-09-11 14:31:47-04:00,tone8_150,11127,6,example_tone
64f35663abb040f67b21100b,default,0,2ab1f3c00a463a452d042a457c55214abd7f82feac1b545f6dcc94d6affdb2c1,1035.4209,FALSE,keypress,testRsp,643,[],choice-response,In time,64ff5d15220cf18479301572,2023-09-11 14:31:47-04:00,add1_30,6556,7,maintaskTrials
64f35663abb040f67b21100b,default,0,2ab1f3c00a463a452d042a457c55214abd7f82feac1b545f6dcc94d6affdb2c1,1035.4209,FALSE,keypress,testRsp,245,[],choice-response,Out of time,64ff5d15220cf18479301572,2023-09-11 14:31:47-04:00,tone1_120,6059,8,maintaskTrials
64f35663abb040f67b21100b,default,0,2ab1f3c00a463a452d042a457c55214abd7f82feac1b545f6dcc94d6affdb2c1,1035.4209,FALSE,keypress,testRsp,556,[],choice-response,In time,64ff5d15220cf18479301572,2023-09-11 14:31:47-04:00,add8_60,6451,9,maintaskTrials
64f35663abb040f67b21100b,default,0,2ab1f3c00a463a452d042a457c55214abd7f82feac1b545f6dcc94d6affdb2c1,1035.4209,FALSE,keypress,testRsp,274,[],choice-response,In time,64ff5d15220cf18479301572,2023-09-11 14:31:47-04:00,lab1_30,6057,10,maintaskTrials
64f35663abb040f67b21100b,default,0,2ab1f3c00a463a452d042a457c55214abd7f82feac1b545f6dcc94d6affdb2c1,1035.4209,FALSE,keypress,testRsp,608,[],choice-response,Out of time,64ff5d15220cf18479301572,2023-09-11 14:31:47-04:00,tone1_0,6216,11,maintaskTrials
64f35663abb040f67b21100b,default,0,2ab1f3c00a463a452d042a457c55214abd7f82feac1b545f6dcc94d6affdb2c1,1035.4209,FALSE,keypress,testRsp,330,[],choice-response,Out of time,64ff5d15220cf18479301572,2023-09-11 14:31:47-04:00,add1_120,6073,12,maintaskTrials
64f35663abb040f67b21100b,default,0,2ab1f3c00a463a452d042a457c55214abd7f82feac1b545f6dcc94d6affdb2c1,1035.4209,FALSE,keypress,testRsp,2465,[],choice-response,Out of time,64ff5d15220cf18479301572,2023-09-11 14:31:47-04:00,add8_0,8109,13,maintaskTrials
64f35663abb040f67b21100b,default,0,2ab1f3c00a463a452d042a457c55214abd7f82feac1b545f6dcc94d6affdb2c1,1035.4209,FALSE,keypress,testRsp,632,[],choice-response,In time,64ff5d15220cf18479301572,2023-09-11 14:31:47-04:00,lab1_120,6308,14,maintaskTrials
64f35663abb040f67b21100b,default,0,2ab1f3c00a463a452d042a457c55214abd7f82feac1b545f6dcc94d6affdb2c1,1035.4209,FALSE,keypress,testRsp,2223,[],choice-response,In time,64ff5d15220cf18479301572,2023-09-11 14:31:47-04:00,add1_60,8152,15,maintaskTrials
64f35663abb040f67b21100b,default,0,2ab1f3c00a463a452d042a457c55214abd7f82feac1b545f6dcc94d6affdb2c1,1035.4209,FALSE,keypress,testRsp,432,[],choice-response,In time,64ff5d15220cf18479301572,2023-09-11 14:31:47-04:00,add8_30,6409,16,maintaskTrials
64f35663abb040f67b21100b,default,0,2ab1f3c00a463a452d042a457c55214abd7f82feac1b545f6dcc94d6affdb2c1,1035.4209,FALSE,keypress,testRsp,258,[],choice-response,Out of time,64ff5d15220cf18479301572,2023-09-11 14:31:47-04:00,add8_120,6476,17,maintaskTrials
64f35663abb040f67b21100b,default,0,2ab1f3c00a463a452d042a457c55214abd7f82feac1b545f6dcc94d6affdb2c1,1035.4209,FALSE,keypress,testRsp,25,[],choice-response,In time,64ff5d15220cf18479301572,2023-09-11 14:31:47-04:00,add1_0,5707,18,maintaskTrials
64f35663abb040f67b21100b,default,0,2ab1f3c00a463a452d042a457c55214abd7f82feac1b545f6dcc94d6affdb2c1,1035.4209,FALSE,keypress,testRsp,1133,[],choice-response,In time,64ff5d15220cf18479301572,2023-09-11 14:31:47-04:00,lab8_90,6905,19,maintaskTrials
64f35663abb040f67b21100b,default,0,2ab1f3c00a463a452d042a457c55214abd7f82feac1b545f6dcc94d6affdb2c1,1035.4209,FALSE,keypress,testRsp,268,[],choice-response,Out of time,64ff5d15220cf18479301572,2023-09-11 14:31:47-04:00,tone1_90,5917,20,maintaskTrials
64f35663abb040f67b21100b,default,0,2ab1f3c00a463a452d042a457c55214abd7f82feac1b545f6dcc94d6affdb2c1,1035.4209,FALSE,keypress,testRsp,33,[],choice-response,In time,64ff5d15220cf18479301572,2023-09-11 14:31:47-04:00,lab8_30,5645,21,maintaskTrials
64f35663abb040f67b21100b,default,0,2ab1f3c00a463a452d042a457c55214abd7f82feac1b545f6dcc94d6affdb2c1,1035.4209,FALSE,keypress,testRsp,245,[],choice-response,In time,64ff5d15220cf18479301572,2023-09-11 14:31:47-04:00,tone8_90,5978,22,maintaskTrials
64f35663abb040f67b21100b,default,0,2ab1f3c00a463a452d042a457c55214abd7f82feac1b545f6dcc94d6affdb2c1,1035.4209,FALSE,keypress,testRsp,164,[],choice-response,In time,64ff5d15220cf18479301572,2023-09-11 14:31:47-04:00,add8_90,5813,23,maintaskTrials
64f35663abb040f67b21100b,default,0,2ab1f3c00a463a452d042a457c55214abd7f82feac1b545f6dcc94d6affdb2c1,1035.4209,FALSE,keypress,testRsp,100,[],choice-response,Out of time,64ff5d15220cf18479301572,2023-09-11 14:31:47-04:00,add1_90,5987,24,maintaskTrials
64f35663abb040f67b21100b,default,0,2ab1f3c00a463a452d042a457c55214abd7f82feac1b545f6dcc94d6affdb2c1,1035.4209,FALSE,keypress,testRsp,298,[],choice-response,Out of time,64ff5d15220cf18479301572,2023-09-11 14:31:47-04:00,tone8_120,6327,25,maintaskTrials
64f35663abb040f67b21100b,default,0,2ab1f3c00a463a452d042a457c55214abd7f82feac1b545f6dcc94d6affdb2c1,1035.4209,FALSE,keypress,testRsp,303,[],choice-response,Out of time,64ff5d15220cf18479301572,2023-09-11 14:31:47-04:00,tone8_0,5975,26,maintaskTrials
64f35663abb040f67b21100b,default,0,2ab1f3c00a463a452d042a457c55214abd7f82feac1b545f6dcc94d6affdb2c1,1035.4209,FALSE,keypress,testRsp,111,[],choice-response,In time,64ff5d15220cf18479301572,2023-09-11 14:31:47-04:00,tone1_30,5743,27,maintaskTrials
64f35663abb040f67b21100b,default,0,2ab1f3c00a463a452d042a457c55214abd7f82feac1b545f6dcc94d6affdb2c1,1035.4209,FALSE,keypress,testRsp,9,[],choice-response,In time,64ff5d15220cf18479301572,2023-09-11 14:31:47-04:00,tone1_60,6127,28,maintaskTrials
64f35663abb040f67b21100b,default,0,2ab1f3c00a463a452d042a457c55214abd7f82feac1b545f6dcc94d6affdb2c1,1035.4209,FALSE,keypress,testRsp,98,[],choice-response,In time,64ff5d15220cf18479301572,2023-09-11 14:31:47-04:00,lab8_60,6066,29,maintaskTrials
64f35663abb040f67b21100b,default,0,2ab1f3c00a463a452d042a457c55214abd7f82feac1b545f6dcc94d6affdb2c1,1035.4209,FALSE,keypress,testRsp,255,[],choice-response,In time,64ff5d15220cf18479301572,2023-09-11 14:31:47-04:00,lab1_90,6060,30,maintaskTrials
64f35663abb040f67b21100b,default,0,2ab1f3c00a463a452d042a457c55214abd7f82feac1b545f6dcc94d6affdb2c1,1035.4209,FALSE,keypress,testRsp,82,[],choice-response,Out of time,64ff5d15220cf18479301572,2023-09-11 14:31:47-04:00,lab8_0,5699,31,maintaskTrials
64f35663abb040f67b21100b,default,0,2ab1f3c00a463a452d042a457c55214abd7f82feac1b545f6dcc94d6affdb2c1,1035.4209,FALSE,keypress,testRsp,615,[],choice-response,In time,64ff5d15220cf18479301572,2023-09-11 14:31:47-04:00,tone8_60,6235,32,maintaskTrials
64f35663abb040f67b21100b,default,0,2ab1f3c00a463a452d042a457c55214abd7f82feac1b545f6dcc94d6affdb2c1,1035.4209,FALSE,keypress,testRsp,138,[],choice-response,In time,64ff5d15220cf18479301572,2023-09-11 14:31:47-04:00,lab1_0,6054,33,maintaskTrials
64f35663abb040f67b21100b,default,0,2ab1f3c00a463a452d042a457c55214abd7f82feac1b545f6dcc94d6affdb2c1,1035.4209,FALSE,keypress,testRsp,989,[],choice-response,In time,64ff5d15220cf18479301572,2023-09-11 14:31:47-04:00,tone8_30,6672,34,maintaskTrials
64f35663abb040f67b21100b,default,0,2ab1f3c00a463a452d042a457c55214abd7f82feac1b545f6dcc94d6affdb2c1,1035.4209,FALSE,keypress,testRsp,1249,[],choice-response,In time,64ff5d15220cf18479301572,2023-09-11 14:31:47-04:00,lab1_60,7047,35,maintaskTrials
64f35663abb040f67b21100b,default,0,2ab1f3c00a463a452d042a457c55214abd7f82feac1b545f6dcc94d6affdb2c1,1035.4209,FALSE,keypress,testRsp,331,[],choice-response,In time,64ff5d15220cf18479301572,2023-09-11 14:31:47-04:00,lab8_120,6000,36,maintaskTrials
64f35663abb040f67b21100b,default,0,2ab1f3c00a463a452d042a457c55214abd7f82feac1b545f6dcc94d6affdb2c1,1035.4209,FALSE,keypress,testRsp,130,[],choice-response,Out of time,64ff5d15220cf18479301572,2023-09-11 14:31:47-04:00,lab8_120,5723,37,maintaskTrials
64f35663abb040f67b21100b,default,0,2ab1f3c00a463a452d042a457c55214abd7f82feac1b545f6dcc94d6affdb2c1,1035.4209,FALSE,keypress,testRsp,51,[],choice-response,In time,64ff5d15220cf18479301572,2023-09-11 14:31:47-04:00,add8_0,5651,38,maintaskTrials
64f35663abb040f67b21100b,default,0,2ab1f3c00a463a452d042a457c55214abd7f82feac1b545f6dcc94d6affdb2c1,1035.4209,FALSE,keypress,testRsp,2229,[],choice-response,In time,64ff5d15220cf18479301572,2023-09-11 14:31:47-04:00,add1_60,7825,39,maintaskTrials
64f35663abb040f67b21100b,default,0,2ab1f3c00a463a452d042a457c55214abd7f82feac1b545f6dcc94d6affdb2c1,1035.4209,FALSE,keypress,testRsp,72,[],choice-response,Out of time,64ff5d15220cf18479301572,2023-09-11 14:31:47-04:00,lab8_0,5671,40,maintaskTrials
64f35663abb040f67b21100b,default,0,2ab1f3c00a463a452d042a457c55214abd7f82feac1b545f6dcc94d6affdb2c1,1035.4209,FALSE,keypress,testRsp,966,[],choice-response,In time,64ff5d15220cf18479301572,2023-09-11 14:31:47-04:00,lab8_30,6567,41,maintaskTrials
64f35663abb040f67b21100b,default,0,2ab1f3c00a463a452d042a457c55214abd7f82feac1b545f6dcc94d6affdb2c1,1035.4209,FALSE,keypress,testRsp,353,[],choice-response,In time,64ff5d15220cf18479301572,2023-09-11 14:31:47-04:00,lab1_120,5940,42,maintaskTrials
64f35663abb040f67b21100b,default,0,2ab1f3c00a463a452d042a457c55214abd7f82feac1b545f6dcc94d6affdb2c1,1035.4209,FALSE,keypress,testRsp,1043,[],choice-response,In time,64ff5d15220cf18479301572,2023-09-11 14:31:47-04:00,tone8_90,6635,43,maintaskTrials
64f35663abb040f67b21100b,default,0,2ab1f3c00a463a452d042a457c55214abd7f82feac1b545f6dcc94d6affdb2c1,1035.4209,FALSE,keypress,testRsp,44,[],choice-response,In time,64ff5d15220cf18479301572,2023-09-11 14:31:47-04:00,tone8_30,5645,44,maintaskTrials
64f35663abb040f67b21100b,default,0,2ab1f3c00a463a452d042a457c55214abd7f82feac1b545f6dcc94d6affdb2c1,1035.4209,FALSE,keypress,testRsp,95,[],choice-response,In time,64ff5d15220cf18479301572,2023-09-11 14:31:47-04:00,add1_30,5697,45,maintaskTrials
64f35663abb040f67b21100b,default,0,2ab1f3c00a463a452d042a457c55214abd7f82feac1b545f6dcc94d6affdb2c1,1035.4209,FALSE,keypress,testRsp,511,[],choice-response,In time,64ff5d15220cf18479301572,2023-09-11 14:31:47-04:00,lab1_90,6108,46,maintaskTrials
64f35663abb040f67b21100b,default,0,2ab1f3c00a463a452d042a457c55214abd7f82feac1b545f6dcc94d6affdb2c1,1035.4209,FALSE,keypress,testRsp,322,[],choice-response,In time,64ff5d15220cf18479301572,2023-09-11 14:31:47-04:00,add8_30,5922,47,maintaskTrials
64f35663abb040f67b21100b,default,0,2ab1f3c00a463a452d042a457c55214abd7f82feac1b545f6dcc94d6affdb2c1,1035.4209,FALSE,keypress,testRsp,748,[],choice-response,In time,64ff5d15220cf18479301572,2023-09-11 14:31:47-04:00,lab8_60,6351,48,maintaskTrials
64f35663abb040f67b21100b,default,0,2ab1f3c00a463a452d042a457c55214abd7f82feac1b545f6dcc94d6affdb2c1,1035.4209,FALSE,keypress,testRsp,90,[],choice-response,In time,64ff5d15220cf18479301572,2023-09-11 14:31:47-04:00,lab1_0,5682,49,maintaskTrials
64f35663abb040f67b21100b,default,0,2ab1f3c00a463a452d042a457c55214abd7f82feac1b545f6dcc94d6affdb2c1,1035.4209,FALSE,keypress,testRsp,108,[],choice-response,Out of time,64ff5d15220cf18479301572,2023-09-11 14:31:47-04:00,add8_90,5707,50,maintaskTrials
64f35663abb040f67b21100b,default,0,2ab1f3c00a463a452d042a457c55214abd7f82feac1b545f6dcc94d6affdb2c1,1035.4209,FALSE,keypress,testRsp,2281,[],choice-response,Out of time,64ff5d15220cf18479301572,2023-09-11 14:31:47-04:00,tone1_60,7893,51,maintaskTrials
64f35663abb040f67b21100b,default,0,2ab1f3c00a463a452d042a457c55214abd7f82feac1b545f6dcc94d6affdb2c1,1035.4209,FALSE,keypress,testRsp,982,[],choice-response,Out of time,64ff5d15220cf18479301572,2023-09-11 14:31:47-04:00,tone8_120,6576,52,maintaskTrials
64f35663abb040f67b21100b,default,0,2ab1f3c00a463a452d042a457c55214abd7f82feac1b545f6dcc94d6affdb2c1,1035.4209,FALSE,keypress,testRsp,484,[],choice-response,In time,64ff5d15220cf18479301572,2023-09-11 14:31:47-04:00,tone1_0,6078,53,maintaskTrials
64f35663abb040f67b21100b,default,0,2ab1f3c00a463a452d042a457c55214abd7f82feac1b545f6dcc94d6affdb2c1,1035.4209,FALSE,keypress,testRsp,540,[],choice-response,In time,64ff5d15220cf18479301572,2023-09-11 14:31:47-04:00,tone1_90,6143,54,maintaskTrials
64f35663abb040f67b21100b,default,0,2ab1f3c00a463a452d042a457c55214abd7f82feac1b545f6dcc94d6affdb2c1,1035.4209,FALSE,keypress,testRsp,1978,[],choice-response,In time,64ff5d15220cf18479301572,2023-09-11 14:31:47-04:00,tone8_0,7574,55,maintaskTrials
64f35663abb040f67b21100b,default,0,2ab1f3c00a463a452d042a457c55214abd7f82feac1b545f6dcc94d6affdb2c1,1035.4209,FALSE,keypress,testRsp,172,[],choice-response,In time,64ff5d15220cf18479301572,2023-09-11 14:31:47-04:00,add8_60,5774,56,maintaskTrials
64f35663abb040f67b21100b,default,0,2ab1f3c00a463a452d042a457c55214abd7f82feac1b545f6dcc94d6affdb2c1,1035.4209,FALSE,keypress,testRsp,1068,[],choice-response,In time,64ff5d15220cf18479301572,2023-09-11 14:31:47-04:00,add1_0,6675,57,maintaskTrials
64f35663abb040f67b21100b,default,0,2ab1f3c00a463a452d042a457c55214abd7f82feac1b545f6dcc94d6affdb2c1,1035.4209,FALSE,keypress,testRsp,2283,[],choice-response,In time,64ff5d15220cf18479301572,2023-09-11 14:31:47-04:00,add8_120,7883,58,maintaskTrials
64f35663abb040f67b21100b,default,0,2ab1f3c00a463a452d042a457c55214abd7f82feac1b545f6dcc94d6affdb2c1,1035.4209,FALSE,keypress,testRsp,1246,[],choice-response,In time,64ff5d15220cf18479301572,2023-09-11 14:31:47-04:00,tone1_120,6839,59,maintaskTrials
64f35663abb040f67b21100b,default,0,2ab1f3c00a463a452d042a457c55214abd7f82feac1b545f6dcc94d6affdb2c1,1035.4209,FALSE,keypress,testRsp,375,[],choice-response,In time,64ff5d15220cf18479301572,2023-09-11 14:31:47-04:00,tone1_30,5959,60,maintaskTrials
64f35663abb040f67b21100b,default,0,2ab1f3c00a463a452d042a457c55214abd7f82feac1b545f6dcc94d6affdb2c1,1035.4209,FALSE,keypress,testRsp,269,[],choice-response,In time,64ff5d15220cf18479301572,2023-09-11 14:31:47-04:00,lab1_60,5866,61,maintaskTrials
64f35663abb040f67b21100b,default,0,2ab1f3c00a463a452d042a457c55214abd7f82feac1b545f6dcc94d6affdb2c1,1035.4209,FALSE,keypress,testRsp,110,[],choice-response,In time,64ff5d15220cf18479301572,2023-09-11 14:31:47-04:00,lab1_30,5695,62,maintaskTrials
64f35663abb040f67b21100b,default,0,2ab1f3c00a463a452d042a457c55214abd7f82feac1b545f6dcc94d6affdb2c1,1035.4209,FALSE,keypress,testRsp,176,[],choice-response,Out of time,64ff5d15220cf18479301572,2023-09-11 14:31:47-04:00,add1_120,5781,63,maintaskTrials
64f35663abb040f67b21100b,default,0,2ab1f3c00a463a452d042a457c55214abd7f82feac1b545f6dcc94d6affdb2c1,1035.4209,FALSE,keypress,testRsp,485,[],choice-response,Out of time,64ff5d15220cf18479301572,2023-09-11 14:31:47-04:00,add1_90,6095,64,maintaskTrials
64f35663abb040f67b21100b,default,0,2ab1f3c00a463a452d042a457c55214abd7f82feac1b545f6dcc94d6affdb2c1,1035.4209,FALSE,keypress,testRsp,45,[],choice-response,In time,64ff5d15220cf18479301572,2023-09-11 14:31:47-04:00,lab8_90,5646,65,maintaskTrials
64f35663abb040f67b21100b,default,0,2ab1f3c00a463a452d042a457c55214abd7f82feac1b545f6dcc94d6affdb2c1,1035.4209,FALSE,keypress,testRsp,635,[],choice-response,In time,64ff5d15220cf18479301572,2023-09-11 14:31:47-04:00,tone8_60,6237,66,maintaskTrials
64f35663abb040f67b21100b,default,0,2ab1f3c00a463a452d042a457c55214abd7f82feac1b545f6dcc94d6affdb2c1,1035.4209,FALSE,keypress,testRsp,12,[],choice-response,In time,64ff5d15220cf18479301572,2023-09-11 14:31:47-04:00,tone8_0,5605,67,maintaskTrials
64f35663abb040f67b21100b,default,0,2ab1f3c00a463a452d042a457c55214abd7f82feac1b545f6dcc94d6affdb2c1,1035.4209,FALSE,keypress,testRsp,203,[],choice-response,In time,64ff5d15220cf18479301572,2023-09-11 14:31:47-04:00,add8_0,5792,68,maintaskTrials
64f35663abb040f67b21100b,default,0,2ab1f3c00a463a452d042a457c55214abd7f82feac1b545f6dcc94d6affdb2c1,1035.4209,FALSE,keypress,testRsp,473,[],choice-response,In time,64ff5d15220cf18479301572,2023-09-11 14:31:47-04:00,add8_30,6075,69,maintaskTrials
64f35663abb040f67b21100b,default,0,2ab1f3c00a463a452d042a457c55214abd7f82feac1b545f6dcc94d6affdb2c1,1035.4209,FALSE,keypress,testRsp,285,[],choice-response,In time,64ff5d15220cf18479301572,2023-09-11 14:31:47-04:00,add1_0,5877,70,maintaskTrials
64f35663abb040f67b21100b,default,0,2ab1f3c00a463a452d042a457c55214abd7f82feac1b545f6dcc94d6affdb2c1,1035.4209,FALSE,keypress,testRsp,297,[],choice-response,In time,64ff5d15220cf18479301572,2023-09-11 14:31:47-04:00,lab1_0,5892,71,maintaskTrials
64f35663abb040f67b21100b,default,0,2ab1f3c00a463a452d042a457c55214abd7f82feac1b545f6dcc94d6affdb2c1,1035.4209,FALSE,keypress,testRsp,195,[],choice-response,In time,64ff5d15220cf18479301572,2023-09-11 14:31:47-04:00,add8_60,5773,72,maintaskTrials
64f35663abb040f67b21100b,default,0,2ab1f3c00a463a452d042a457c55214abd7f82feac1b545f6dcc94d6affdb2c1,1035.4209,FALSE,keypress,testRsp,120,[],choice-response,In time,64ff5d15220cf18479301572,2023-09-11 14:31:47-04:00,lab1_120,5737,73,maintaskTrials
64f35663abb040f67b21100b,default,0,2ab1f3c00a463a452d042a457c55214abd7f82feac1b545f6dcc94d6affdb2c1,1035.4209,FALSE,keypress,testRsp,44,[],choice-response,In time,64ff5d15220cf18479301572,2023-09-11 14:31:47-04:00,tone1_60,5641,74,maintaskTrials
64f35663abb040f67b21100b,default,0,2ab1f3c00a463a452d042a457c55214abd7f82feac1b545f6dcc94d6affdb2c1,1035.4209,FALSE,keypress,testRsp,573,[],choice-response,In time,64ff5d15220cf18479301572,2023-09-11 14:31:47-04:00,tone1_30,6172,75,maintaskTrials
64f35663abb040f67b21100b,default,0,2ab1f3c00a463a452d042a457c55214abd7f82feac1b545f6dcc94d6affdb2c1,1035.4209,FALSE,keypress,testRsp,236,[],choice-response,In time,64ff5d15220cf18479301572,2023-09-11 14:31:47-04:00,tone8_30,5842,76,maintaskTrials
64f35663abb040f67b21100b,default,0,2ab1f3c00a463a452d042a457c55214abd7f82feac1b545f6dcc94d6affdb2c1,1035.4209,FALSE,keypress,testRsp,648,[],choice-response,In time,64ff5d15220cf18479301572,2023-09-11 14:31:47-04:00,lab8_90,6244,77,maintaskTrials
64f35663abb040f67b21100b,default,0,2ab1f3c00a463a452d042a457c55214abd7f82feac1b545f6dcc94d6affdb2c1,1035.4209,FALSE,keypress,testRsp,25,[],choice-response,In time,64ff5d15220cf18479301572,2023-09-11 14:31:47-04:00,tone8_90,5625,78,maintaskTrials
64f35663abb040f67b21100b,default,0,2ab1f3c00a463a452d042a457c55214abd7f82feac1b545f6dcc94d6affdb2c1,1035.4209,FALSE,keypress,testRsp,374,[],choice-response,In time,64ff5d15220cf18479301572,2023-09-11 14:31:47-04:00,lab1_90,5972,79,maintaskTrials
64f35663abb040f67b21100b,default,0,2ab1f3c00a463a452d042a457c55214abd7f82feac1b545f6dcc94d6affdb2c1,1035.4209,FALSE,keypress,testRsp,507,[],choice-response,In time,64ff5d15220cf18479301572,2023-09-11 14:31:47-04:00,tone1_0,6104,80,maintaskTrials
64f35663abb040f67b21100b,default,0,2ab1f3c00a463a452d042a457c55214abd7f82feac1b545f6dcc94d6affdb2c1,1035.4209,FALSE,keypress,testRsp,3445,[],choice-response,Out of time,64ff5d15220cf18479301572,2023-09-11 14:31:47-04:00,tone1_90,9071,81,maintaskTrials
64f35663abb040f67b21100b,default,0,2ab1f3c00a463a452d042a457c55214abd7f82feac1b545f6dcc94d6affdb2c1,1035.4209,FALSE,keypress,testRsp,115,[],choice-response,In time,64ff5d15220cf18479301572,2023-09-11 14:31:47-04:00,lab1_60,5722,82,maintaskTrials
64f35663abb040f67b21100b,default,0,2ab1f3c00a463a452d042a457c55214abd7f82feac1b545f6dcc94d6affdb2c1,1035.4209,FALSE,keypress,testRsp,1305,[],choice-response,In time,64ff5d15220cf18479301572,2023-09-11 14:31:47-04:00,lab8_30,6926,83,maintaskTrials
64f35663abb040f67b21100b,default,0,2ab1f3c00a463a452d042a457c55214abd7f82feac1b545f6dcc94d6affdb2c1,1035.4209,FALSE,keypress,testRsp,675,[],choice-response,Out of time,64ff5d15220cf18479301572,2023-09-11 14:31:47-04:00,add8_120,6270,84,maintaskTrials
64f35663abb040f67b21100b,default,0,2ab1f3c00a463a452d042a457c55214abd7f82feac1b545f6dcc94d6affdb2c1,1035.4209,FALSE,keypress,testRsp,1249,[],choice-response,In time,64ff5d15220cf18479301572,2023-09-11 14:31:47-04:00,tone1_120,6846,85,maintaskTrials
64f35663abb040f67b21100b,default,0,2ab1f3c00a463a452d042a457c55214abd7f82feac1b545f6dcc94d6affdb2c1,1035.4209,FALSE,keypress,testRsp,1132,[],choice-response,In time,64ff5d15220cf18479301572,2023-09-11 14:31:47-04:00,add1_120,6736,86,maintaskTrials
64f35663abb040f67b21100b,default,0,2ab1f3c00a463a452d042a457c55214abd7f82feac1b545f6dcc94d6affdb2c1,1035.4209,FALSE,keypress,testRsp,908,[],choice-response,In time,64ff5d15220cf18479301572,2023-09-11 14:31:47-04:00,add1_60,6489,87,maintaskTrials
64f35663abb040f67b21100b,default,0,2ab1f3c00a463a452d042a457c55214abd7f82feac1b545f6dcc94d6affdb2c1,1035.4209,FALSE,keypress,testRsp,514,[],choice-response,In time,64ff5d15220cf18479301572,2023-09-11 14:31:47-04:00,lab1_30,6098,88,maintaskTrials
64f35663abb040f67b21100b,default,0,2ab1f3c00a463a452d042a457c55214abd7f82feac1b545f6dcc94d6affdb2c1,1035.4209,FALSE,keypress,testRsp,666,[],choice-response,Out of time,64ff5d15220cf18479301572,2023-09-11 14:31:47-04:00,add8_90,6249,89,maintaskTrials
64f35663abb040f67b21100b,default,0,2ab1f3c00a463a452d042a457c55214abd7f82feac1b545f6dcc94d6affdb2c1,1035.4209,FALSE,keypress,testRsp,578,[],choice-response,In time,64ff5d15220cf18479301572,2023-09-11 14:31:47-04:00,lab8_60,6175,90,maintaskTrials
64f35663abb040f67b21100b,default,0,2ab1f3c00a463a452d042a457c55214abd7f82feac1b545f6dcc94d6affdb2c1,1035.4209,FALSE,keypress,testRsp,358,[],choice-response,In time,64ff5d15220cf18479301572,2023-09-11 14:31:47-04:00,tone8_60,5949,91,maintaskTrials
64f35663abb040f67b21100b,default,0,2ab1f3c00a463a452d042a457c55214abd7f82feac1b545f6dcc94d6affdb2c1,1035.4209,FALSE,keypress,testRsp,957,[],choice-response,In time,64ff5d15220cf18479301572,2023-09-11 14:31:47-04:00,tone8_120,6560,92,maintaskTrials
64f35663abb040f67b21100b,default,0,2ab1f3c00a463a452d042a457c55214abd7f82feac1b545f6dcc94d6affdb2c1,1035.4209,FALSE,keypress,testRsp,710,[],choice-response,In time,64ff5d15220cf18479301572,2023-09-11 14:31:47-04:00,add1_30,6296,93,maintaskTrials
64f35663abb040f67b21100b,default,0,2ab1f3c00a463a452d042a457c55214abd7f82feac1b545f6dcc94d6affdb2c1,1035.4209,FALSE,keypress,testRsp,146,[],choice-response,Out of time,64ff5d15220cf18479301572,2023-09-11 14:31:47-04:00,lab8_0,5730,94,maintaskTrials
64f35663abb040f67b21100b,default,0,2ab1f3c00a463a452d042a457c55214abd7f82feac1b545f6dcc94d6affdb2c1,1035.4209,FALSE,keypress,testRsp,930,[],choice-response,In time,64ff5d15220cf18479301572,2023-09-11 14:31:47-04:00,lab8_120,6525,95,maintaskTrials
64f35663abb040f67b21100b,default,0,2ab1f3c00a463a452d042a457c55214abd7f82feac1b545f6dcc94d6affdb2c1,1035.4209,FALSE,keypress,testRsp,271,[],choice-response,Out of time,64ff5d15220cf18479301572,2023-09-11 14:31:47-04:00,add1_90,5881,96,maintaskTrials
64f35663abb040f67b21100b,default,0,2ab1f3c00a463a452d042a457c55214abd7f82feac1b545f6dcc94d6affdb2c1,1035.4209,FALSE,keypress,testRsp,153,[],choice-response,Out of time,64ff5d15220cf18479301572,2023-09-11 14:31:47-04:00,tone1_30,5728,97,maintaskTrials
64f35663abb040f67b21100b,default,0,2ab1f3c00a463a452d042a457c55214abd7f82feac1b545f6dcc94d6affdb2c1,1035.4209,FALSE,keypress,testRsp,123,[],choice-response,In time,64ff5d15220cf18479301572,2023-09-11 14:31:47-04:00,add8_90,5721,98,maintaskTrials
64f35663abb040f67b21100b,default,0,2ab1f3c00a463a452d042a457c55214abd7f82feac1b545f6dcc94d6affdb2c1,1035.4209,FALSE,keypress,testRsp,310,[],choice-response,In time,64ff5d15220cf18479301572,2023-09-11 14:31:47-04:00,lab1_120,5904,99,maintaskTrials
64f35663abb040f67b21100b,default,0,2ab1f3c00a463a452d042a457c55214abd7f82feac1b545f6dcc94d6affdb2c1,1035.4209,FALSE,keypress,testRsp,2307,[],choice-response,In time,64ff5d15220cf18479301572,2023-09-11 14:31:47-04:00,lab1_0,7901,100,maintaskTrials
64f35663abb040f67b21100b,default,0,2ab1f3c00a463a452d042a457c55214abd7f82feac1b545f6dcc94d6affdb2c1,1035.4209,FALSE,keypress,testRsp,3766,[],choice-response,Out of time,64ff5d15220cf18479301572,2023-09-11 14:31:47-04:00,add1_120,9374,101,maintaskTrials
64f35663abb040f67b21100b,default,0,2ab1f3c00a463a452d042a457c55214abd7f82feac1b545f6dcc94d6affdb2c1,1035.4209,FALSE,keypress,testRsp,1502,[],choice-response,Out of time,64ff5d15220cf18479301572,2023-09-11 14:31:47-04:00,tone8_90,7099,102,maintaskTrials
64f35663abb040f67b21100b,default,0,2ab1f3c00a463a452d042a457c55214abd7f82feac1b545f6dcc94d6affdb2c1,1035.4209,FALSE,keypress,testRsp,681,[],choice-response,Out of time,64ff5d15220cf18479301572,2023-09-11 14:31:47-04:00,add8_0,6265,103,maintaskTrials
64f35663abb040f67b21100b,default,0,2ab1f3c00a463a452d042a457c55214abd7f82feac1b545f6dcc94d6affdb2c1,1035.4209,FALSE,keypress,testRsp,80,[],choice-response,In time,64ff5d15220cf18479301572,2023-09-11 14:31:47-04:00,lab8_60,5670,104,maintaskTrials
64f35663abb040f67b21100b,default,0,2ab1f3c00a463a452d042a457c55214abd7f82feac1b545f6dcc94d6affdb2c1,1035.4209,FALSE,keypress,testRsp,194,[],choice-response,Out of time,64ff5d15220cf18479301572,2023-09-11 14:31:47-04:00,lab8_0,5810,105,maintaskTrials
64f35663abb040f67b21100b,default,0,2ab1f3c00a463a452d042a457c55214abd7f82feac1b545f6dcc94d6affdb2c1,1035.4209,FALSE,keypress,testRsp,216,[],choice-response,In time,64ff5d15220cf18479301572,2023-09-11 14:31:47-04:00,lab8_120,5831,106,maintaskTrials
64f35663abb040f67b21100b,default,0,2ab1f3c00a463a452d042a457c55214abd7f82feac1b545f6dcc94d6affdb2c1,1035.4209,FALSE,keypress,testRsp,334,[],choice-response,In time,64ff5d15220cf18479301572,2023-09-11 14:31:47-04:00,add1_60,5928,107,maintaskTrials
64f35663abb040f67b21100b,default,0,2ab1f3c00a463a452d042a457c55214abd7f82feac1b545f6dcc94d6affdb2c1,1035.4209,FALSE,keypress,testRsp,564,[],choice-response,In time,64ff5d15220cf18479301572,2023-09-11 14:31:47-04:00,add1_30,6157,108,maintaskTrials
64f35663abb040f67b21100b,default,0,2ab1f3c00a463a452d042a457c55214abd7f82feac1b545f6dcc94d6affdb2c1,1035.4209,FALSE,keypress,testRsp,1109,[],choice-response,In time,64ff5d15220cf18479301572,2023-09-11 14:31:47-04:00,lab8_90,6705,109,maintaskTrials
64f35663abb040f67b21100b,default,0,2ab1f3c00a463a452d042a457c55214abd7f82feac1b545f6dcc94d6affdb2c1,1035.4209,FALSE,keypress,testRsp,1433,[],choice-response,In time,64ff5d15220cf18479301572,2023-09-11 14:31:47-04:00,lab1_30,7035,110,maintaskTrials
64f35663abb040f67b21100b,default,0,2ab1f3c00a463a452d042a457c55214abd7f82feac1b545f6dcc94d6affdb2c1,1035.4209,FALSE,keypress,testRsp,370,[],choice-response,In time,64ff5d15220cf18479301572,2023-09-11 14:31:47-04:00,lab1_60,5956,111,maintaskTrials
64f35663abb040f67b21100b,default,0,2ab1f3c00a463a452d042a457c55214abd7f82feac1b545f6dcc94d6affdb2c1,1035.4209,FALSE,keypress,testRsp,1,[],choice-response,In time,64ff5d15220cf18479301572,2023-09-11 14:31:47-04:00,lab8_30,5601,112,maintaskTrials
64f35663abb040f67b21100b,default,0,2ab1f3c00a463a452d042a457c55214abd7f82feac1b545f6dcc94d6affdb2c1,1035.4209,FALSE,keypress,testRsp,74,[],choice-response,In time,64ff5d15220cf18479301572,2023-09-11 14:31:47-04:00,tone1_60,5671,113,maintaskTrials
64f35663abb040f67b21100b,default,0,2ab1f3c00a463a452d042a457c55214abd7f82feac1b545f6dcc94d6affdb2c1,1035.4209,FALSE,keypress,testRsp,28,[],choice-response,In time,64ff5d15220cf18479301572,2023-09-11 14:31:47-04:00,add8_60,5625,114,maintaskTrials
64f35663abb040f67b21100b,default,0,2ab1f3c00a463a452d042a457c55214abd7f82feac1b545f6dcc94d6affdb2c1,1035.4209,FALSE,keypress,testRsp,598,[],choice-response,Out of time,64ff5d15220cf18479301572,2023-09-11 14:31:47-04:00,tone8_120,6191,115,maintaskTrials
64f35663abb040f67b21100b,default,0,2ab1f3c00a463a452d042a457c55214abd7f82feac1b545f6dcc94d6affdb2c1,1035.4209,FALSE,keypress,testRsp,1072,[],choice-response,In time,64ff5d15220cf18479301572,2023-09-11 14:31:47-04:00,tone1_120,6652,116,maintaskTrials
64f35663abb040f67b21100b,default,0,2ab1f3c00a463a452d042a457c55214abd7f82feac1b545f6dcc94d6affdb2c1,1035.4209,FALSE,keypress,testRsp,107,[],choice-response,In time,64ff5d15220cf18479301572,2023-09-11 14:31:47-04:00,tone8_0,5705,117,maintaskTrials
64f35663abb040f67b21100b,default,0,2ab1f3c00a463a452d042a457c55214abd7f82feac1b545f6dcc94d6affdb2c1,1035.4209,FALSE,keypress,testRsp,1005,[],choice-response,In time,64ff5d15220cf18479301572,2023-09-11 14:31:47-04:00,add1_0,6590,118,maintaskTrials
64f35663abb040f67b21100b,default,0,2ab1f3c00a463a452d042a457c55214abd7f82feac1b545f6dcc94d6affdb2c1,1035.4209,FALSE,keypress,testRsp,380,[],choice-response,In time,64ff5d15220cf18479301572,2023-09-11 14:31:47-04:00,tone1_90,5975,119,maintaskTrials
64f35663abb040f67b21100b,default,0,2ab1f3c00a463a452d042a457c55214abd7f82feac1b545f6dcc94d6affdb2c1,1035.4209,FALSE,keypress,testRsp,156,[],choice-response,In time,64ff5d15220cf18479301572,2023-09-11 14:31:47-04:00,tone8_30,5748,120,maintaskTrials
64f35663abb040f67b21100b,default,0,2ab1f3c00a463a452d042a457c55214abd7f82feac1b545f6dcc94d6affdb2c1,1035.4209,FALSE,keypress,testRsp,601,[],choice-response,In time,64ff5d15220cf18479301572,2023-09-11 14:31:47-04:00,tone1_0,6191,121,maintaskTrials
64f35663abb040f67b21100b,default,0,2ab1f3c00a463a452d042a457c55214abd7f82feac1b545f6dcc94d6affdb2c1,1035.4209,FALSE,keypress,testRsp,1041,[],choice-response,In time,64ff5d15220cf18479301572,2023-09-11 14:31:47-04:00,lab1_90,6668,122,maintaskTrials
64f35663abb040f67b21100b,default,0,2ab1f3c00a463a452d042a457c55214abd7f82feac1b545f6dcc94d6affdb2c1,1035.4209,FALSE,keypress,testRsp,343,[],choice-response,In time,64ff5d15220cf18479301572,2023-09-11 14:31:47-04:00,add8_30,5946,123,maintaskTrials
64f35663abb040f67b21100b,default,0,2ab1f3c00a463a452d042a457c55214abd7f82feac1b545f6dcc94d6affdb2c1,1035.4209,FALSE,keypress,testRsp,505,[],choice-response,In time,64ff5d15220cf18479301572,2023-09-11 14:31:47-04:00,tone8_60,6108,124,maintaskTrials
64f35663abb040f67b21100b,default,0,2ab1f3c00a463a452d042a457c55214abd7f82feac1b545f6dcc94d6affdb2c1,1035.4209,FALSE,keypress,testRsp,312,[],choice-response,Out of time,64ff5d15220cf18479301572,2023-09-11 14:31:47-04:00,add8_120,5918,125,maintaskTrials
64f35663abb040f67b21100b,default,0,2ab1f3c00a463a452d042a457c55214abd7f82feac1b545f6dcc94d6affdb2c1,1035.4209,FALSE,keypress,testRsp,110,[],choice-response,In time,64ff5d15220cf18479301572,2023-09-11 14:31:47-04:00,add1_90,5699,126,maintaskTrials
64f35663abb040f67b21100b,default,0,2ab1f3c00a463a452d042a457c55214abd7f82feac1b545f6dcc94d6affdb2c1,1035.4209,FALSE,keypress,testRsp,341,[],choice-response,In time,64ff5d15220cf18479301572,2023-09-11 14:31:47-04:00,lab8_0,5938,127,maintaskTrials
64f35663abb040f67b21100b,default,0,2ab1f3c00a463a452d042a457c55214abd7f82feac1b545f6dcc94d6affdb2c1,1035.4209,FALSE,keypress,testRsp,261,[],choice-response,Out of time,64ff5d15220cf18479301572,2023-09-11 14:31:47-04:00,add8_120,5843,128,maintaskTrials
64f35663abb040f67b21100b,default,0,2ab1f3c00a463a452d042a457c55214abd7f82feac1b545f6dcc94d6affdb2c1,1035.4209,FALSE,keypress,testRsp,337,[],choice-response,In time,64ff5d15220cf18479301572,2023-09-11 14:31:47-04:00,lab1_90,5930,129,maintaskTrials
64f35663abb040f67b21100b,default,0,2ab1f3c00a463a452d042a457c55214abd7f82feac1b545f6dcc94d6affdb2c1,1035.4209,FALSE,keypress,testRsp,403,[],choice-response,In time,64ff5d15220cf18479301572,2023-09-11 14:31:47-04:00,add1_30,6012,130,maintaskTrials
64f35663abb040f67b21100b,default,0,2ab1f3c00a463a452d042a457c55214abd7f82feac1b545f6dcc94d6affdb2c1,1035.4209,FALSE,keypress,testRsp,21,[],choice-response,In time,64ff5d15220cf18479301572,2023-09-11 14:31:47-04:00,lab1_0,5614,131,maintaskTrials
64f35663abb040f67b21100b,default,0,2ab1f3c00a463a452d042a457c55214abd7f82feac1b545f6dcc94d6affdb2c1,1035.4209,FALSE,keypress,testRsp,386,[],choice-response,In time,64ff5d15220cf18479301572,2023-09-11 14:31:47-04:00,add8_30,5985,132,maintaskTrials
64f35663abb040f67b21100b,default,0,2ab1f3c00a463a452d042a457c55214abd7f82feac1b545f6dcc94d6affdb2c1,1035.4209,FALSE,keypress,testRsp,392,[],choice-response,Out of time,64ff5d15220cf18479301572,2023-09-11 14:31:47-04:00,add1_120,5979,133,maintaskTrials
64f35663abb040f67b21100b,default,0,2ab1f3c00a463a452d042a457c55214abd7f82feac1b545f6dcc94d6affdb2c1,1035.4209,FALSE,keypress,testRsp,300,[],choice-response,In time,64ff5d15220cf18479301572,2023-09-11 14:31:47-04:00,tone1_30,5901,134,maintaskTrials
64f35663abb040f67b21100b,default,0,2ab1f3c00a463a452d042a457c55214abd7f82feac1b545f6dcc94d6affdb2c1,1035.4209,FALSE,keypress,testRsp,336,[],choice-response,In time,64ff5d15220cf18479301572,2023-09-11 14:31:47-04:00,tone8_90,5939,135,maintaskTrials
64f35663abb040f67b21100b,default,0,2ab1f3c00a463a452d042a457c55214abd7f82feac1b545f6dcc94d6affdb2c1,1035.4209,FALSE,keypress,testRsp,665,[],choice-response,In time,64ff5d15220cf18479301572,2023-09-11 14:31:47-04:00,lab1_120,6256,136,maintaskTrials
64f35663abb040f67b21100b,default,0,2ab1f3c00a463a452d042a457c55214abd7f82feac1b545f6dcc94d6affdb2c1,1035.4209,FALSE,keypress,testRsp,661,[],choice-response,In time,64ff5d15220cf18479301572,2023-09-11 14:31:47-04:00,tone1_60,6240,137,maintaskTrials
64f35663abb040f67b21100b,default,0,2ab1f3c00a463a452d042a457c55214abd7f82feac1b545f6dcc94d6affdb2c1,1035.4209,FALSE,keypress,testRsp,258,[],choice-response,In time,64ff5d15220cf18479301572,2023-09-11 14:31:47-04:00,add1_0,5850,138,maintaskTrials
64f35663abb040f67b21100b,default,0,2ab1f3c00a463a452d042a457c55214abd7f82feac1b545f6dcc94d6affdb2c1,1035.4209,FALSE,keypress,testRsp,815,[],choice-response,Out of time,64ff5d15220cf18479301572,2023-09-11 14:31:47-04:00,add8_60,6410,139,maintaskTrials
64f35663abb040f67b21100b,default,0,2ab1f3c00a463a452d042a457c55214abd7f82feac1b545f6dcc94d6affdb2c1,1035.4209,FALSE,keypress,testRsp,268,[],choice-response,Out of time,64ff5d15220cf18479301572,2023-09-11 14:31:47-04:00,tone8_30,5866,140,maintaskTrials
64f35663abb040f67b21100b,default,0,2ab1f3c00a463a452d042a457c55214abd7f82feac1b545f6dcc94d6affdb2c1,1035.4209,FALSE,keypress,testRsp,238,[],choice-response,In time,64ff5d15220cf18479301572,2023-09-11 14:31:47-04:00,lab8_120,5850,141,maintaskTrials
64f35663abb040f67b21100b,default,0,2ab1f3c00a463a452d042a457c55214abd7f82feac1b545f6dcc94d6affdb2c1,1035.4209,FALSE,keypress,testRsp,230,[],choice-response,In time,64ff5d15220cf18479301572,2023-09-11 14:31:47-04:00,lab8_60,5824,142,maintaskTrials
64f35663abb040f67b21100b,default,0,2ab1f3c00a463a452d042a457c55214abd7f82feac1b545f6dcc94d6affdb2c1,1035.4209,FALSE,keypress,testRsp,188,[],choice-response,Out of time,64ff5d15220cf18479301572,2023-09-11 14:31:47-04:00,add8_90,5790,143,maintaskTrials
64f35663abb040f67b21100b,default,0,2ab1f3c00a463a452d042a457c55214abd7f82feac1b545f6dcc94d6affdb2c1,1035.4209,FALSE,keypress,testRsp,215,[],choice-response,Out of time,64ff5d15220cf18479301572,2023-09-11 14:31:47-04:00,tone8_120,5831,144,maintaskTrials
64f35663abb040f67b21100b,default,0,2ab1f3c00a463a452d042a457c55214abd7f82feac1b545f6dcc94d6affdb2c1,1035.4209,FALSE,keypress,testRsp,191,[],choice-response,In time,64ff5d15220cf18479301572,2023-09-11 14:31:47-04:00,add8_0,5786,145,maintaskTrials
64f35663abb040f67b21100b,default,0,2ab1f3c00a463a452d042a457c55214abd7f82feac1b545f6dcc94d6affdb2c1,1035.4209,FALSE,keypress,testRsp,97,[],choice-response,Out of time,64ff5d15220cf18479301572,2023-09-11 14:31:47-04:00,tone1_90,5694,146,maintaskTrials
64f35663abb040f67b21100b,default,0,2ab1f3c00a463a452d042a457c55214abd7f82feac1b545f6dcc94d6affdb2c1,1035.4209,FALSE,keypress,testRsp,1944,[],choice-response,In time,64ff5d15220cf18479301572,2023-09-11 14:31:47-04:00,tone1_0,7559,147,maintaskTrials
64f35663abb040f67b21100b,default,0,2ab1f3c00a463a452d042a457c55214abd7f82feac1b545f6dcc94d6affdb2c1,1035.4209,FALSE,keypress,testRsp,333,[],choice-response,In time,64ff5d15220cf18479301572,2023-09-11 14:31:47-04:00,lab1_30,5941,148,maintaskTrials
64f35663abb040f67b21100b,default,0,2ab1f3c00a463a452d042a457c55214abd7f82feac1b545f6dcc94d6affdb2c1,1035.4209,FALSE,keypress,testRsp,293,[],choice-response,In time,64ff5d15220cf18479301572,2023-09-11 14:31:47-04:00,lab8_90,5886,149,maintaskTrials
64f35663abb040f67b21100b,default,0,2ab1f3c00a463a452d042a457c55214abd7f82feac1b545f6dcc94d6affdb2c1,1035.4209,FALSE,keypress,testRsp,252,[],choice-response,In time,64ff5d15220cf18479301572,2023-09-11 14:31:47-04:00,lab1_60,5835,150,maintaskTrials
64f35663abb040f67b21100b,default,0,2ab1f3c00a463a452d042a457c55214abd7f82feac1b545f6dcc94d6affdb2c1,1035.4209,FALSE,keypress,testRsp,115,[],choice-response,Out of time,64ff5d15220cf18479301572,2023-09-11 14:31:47-04:00,tone1_120,5716,151,maintaskTrials
64f35663abb040f67b21100b,default,0,2ab1f3c00a463a452d042a457c55214abd7f82feac1b545f6dcc94d6affdb2c1,1035.4209,FALSE,keypress,testRsp,1009,[],choice-response,Out of time,64ff5d15220cf18479301572,2023-09-11 14:31:47-04:00,add1_90,6608,152,maintaskTrials
64f35663abb040f67b21100b,default,0,2ab1f3c00a463a452d042a457c55214abd7f82feac1b545f6dcc94d6affdb2c1,1035.4209,FALSE,keypress,testRsp,251,[],choice-response,Out of time,64ff5d15220cf18479301572,2023-09-11 14:31:47-04:00,tone8_0,5863,153,maintaskTrials
64f35663abb040f67b21100b,default,0,2ab1f3c00a463a452d042a457c55214abd7f82feac1b545f6dcc94d6affdb2c1,1035.4209,FALSE,keypress,testRsp,76,[],choice-response,In time,64ff5d15220cf18479301572,2023-09-11 14:31:47-04:00,tone8_60,5702,154,maintaskTrials
64f35663abb040f67b21100b,default,0,2ab1f3c00a463a452d042a457c55214abd7f82feac1b545f6dcc94d6affdb2c1,1035.4209,FALSE,keypress,testRsp,78,[],choice-response,In time,64ff5d15220cf18479301572,2023-09-11 14:31:47-04:00,add1_60,5667,155,maintaskTrials
64f35663abb040f67b21100b,default,0,2ab1f3c00a463a452d042a457c55214abd7f82feac1b545f6dcc94d6affdb2c1,1035.4209,FALSE,keypress,testRsp,317,[],choice-response,Out of time,64ff5d15220cf18479301572,2023-09-11 14:31:47-04:00,lab8_30,5909,156,maintaskTrials