,index,branch_failpass,expt_id,group_id,network_error_repeat,participant_id,participation_duration,response_correct,response_mode,response_name,response_rt,response_target,response_type,response_value,session_id,session_start_time,stimuli_presented,trial_duration,trial_num,trial_template,task,sub_id,exp,Correct,Shorter,Length
0,3,,6345b7f49677d36bd07c5a10,EXP8a_JF,0,b60a33fc2983644fe4faec8cb955a22db3467aaa8db95ce81e9953d3762f43e9,2776.583280801773,False,keypress,prescreenRsp_bagback_rv,3084,[],choice-response,Bag,636e065bbae6d6e5860db41b,2022-11-11 03:22:51-05:00,Back,4068,4,PrescreenTrials_rv,PrescreenTrials,b60a3,EXP8a,0,0,1
1,4,,6345b7f49677d36bd07c5a10,EXP8a_JF,0,b60a33fc2983644fe4faec8cb955a22db3467aaa8db95ce81e9953d3762f43e9,2776.583280801773,False,keypress,prescreenRsp_fadfat_rv,2154,[],choice-response,Fad,636e065bbae6d6e5860db41b,2022-11-11 03:22:51-05:00,Fad,3560,5,PrescreenTrials_rv,PrescreenTrials,b60a3,EXP8a,1,0,8
2,5,,6345b7f49677d36bd07c5a10,EXP8a_JF,0,b60a33fc2983644fe4faec8cb955a22db3467aaa8db95ce81e9953d3762f43e9,2776.583280801773,False,keypress,prescreenRsp_beadbeat_rv,1661,[],choice-response,Bead,636e065bbae6d6e5860db41b,2022-11-11 03:22:51-05:00,Bead,2901,6,PrescreenTrials_rv,PrescreenTrials,b60a3,EXP8a,1,0,8
3,6,,6345b7f49677d36bd07c5a10,EXP8a_JF,0,b60a33fc2983644fe4faec8cb955a22db3467aaa8db95ce81e9953d3762f43e9,2776.583280801773,False,keypress,prescreenRsp_laglack_rv,4031,[],choice-response,Lack,636e065bbae6d6e5860db41b,2022-11-11 03:22:51-05:00,Lack,4958,7,PrescreenTrials_rv,PrescreenTrials,b60a3,EXP8a,1,1,1
4,7,,6345b7f49677d36bd07c5a10,EXP8a_JF,0,b60a33fc2983644fe4faec8cb955a22db3467aaa8db95ce81e9953d3762f43e9,2776.583280801773,False,keypress,prescreenRsp_cabcap_rv,6218,[],choice-response,Cab,636e065bbae6d6e5860db41b,2022-11-11 03:22:51-05:00,Cab,7353,8,PrescreenTrials_rv,PrescreenTrials,b60a3,EXP8a,1,0,8
5,8,,6345b7f49677d36bd07c5a10,EXP8a_JF,0,b60a33fc2983644fe4faec8cb955a22db3467aaa8db95ce81e9953d3762f43e9,2776.583280801773,False,keypress,prescreenRsp_laglack_rv,1708,[],choice-response,Lag,636e065bbae6d6e5860db41b,2022-11-11 03:22:51-05:00,Lag,2866,9,PrescreenTrials_rv,PrescreenTrials,b60a3,EXP8a,1,0,8
6,9,,6345b7f49677d36bd07c5a10,EXP8a_JF,0,b60a33fc2983644fe4faec8cb955a22db3467aaa8db95ce81e9953d3762f43e9,2776.583280801773,False,keypress,prescreenRsp_bagback_rv,1274,[],choice-response,Bag,636e065bbae6d6e5860db41b,2022-11-11 03:22:51-05:00,Bag,2396,10,PrescreenTrials_rv,PrescreenTrials,b60a3,EXP8a,1,0,8
7,10,,6345b7f49677d36bd07c5a10,EXP8a_JF,0,b60a33fc2983644fe4faec8cb955a22db3467aaa8db95ce81e9953d3762f43e9,2776.583280801773,False,keypress,prescreenRsp_lablap_rv,1190,[],choice-response,Lap,636e065bbae6d6e5860db41b,2022-11-11 03:22:51-05:00,Lap,2123,11,PrescreenTrials_rv,PrescreenTrials,b60a3,EXP8a,1,1,1
8,11,,6345b7f49677d36bd07c5a10,EXP8a_JF,0,b60a33fc2983644fe4faec8cb955a22db3467aaa8db95ce81e9953d3762f43e9,2776.583280801773,False,keypress,prescreenRsp_fadfat_rv,1191,[],choice-response,Fad,636e065bbae6d6e5860db41b,2022-11-11 03:22:51-05:00,Fat,2307,12,PrescreenTrials_rv,PrescreenTrials,b60a3,EXP8a,0,0,1
9,12,,6345b7f49677d36bd07c5a10,EXP8a_JF,0,b60a33fc2983644fe4faec8cb955a22db3467aaa8db95ce81e9953d3762f43e9,2776.583280801773,False,keypress,prescreenRsp_cabcap_rv,935,[],choice-response,Cap,636e065bbae6d6e5860db41b,2022-11-11 03:22:51-05:00,Cap,1857,13,PrescreenTrials_rv,PrescreenTrials,b60a3,EXP8a,1,1,1
10,13,,6345b7f49677d36bd07c5a10,EXP8a_JF,0,b60a33fc2983644fe4faec8cb955a22db3467aaa8db95ce81e9953d3762f43e9,2776.583280801773,False,keypress,prescreenRsp_lablap_rv,2099,[],choice-response,Lab,636e065bbae6d6e5860db41b,2022-11-11 03:22:51-05:00,Lab,3305,14,PrescreenTrials_rv,PrescreenTrials,b60a3,EXP8a,1,0,8
11,14,,6345b7f49677d36bd07c5a10,EXP8a_JF,0,b60a33fc2983644fe4faec8cb955a22db3467aaa8db95ce81e9953d3762f43e9,2776.583280801773,False,keypress,prescreenRsp_beadbeat_rv,2131,[],choice-response,Bead,636e065bbae6d6e5860db41b,2022-11-11 03:22:51-05:00,Beat,3108,15,PrescreenTrials_rv,PrescreenTrials,b60a3,EXP8a,0,0,1
12,15,,6345b7f49677d36bd07c5a10,EXP8a_JF,0,b60a33fc2983644fe4faec8cb955a22db3467aaa8db95ce81e9953d3762f43e9,2776.583280801773,False,keypress,prescreenRsp_beadbeat_rv,1193,[],choice-response,Bead,636e065bbae6d6e5860db41b,2022-11-11 03:22:51-05:00,Bead,2369,16,PrescreenTrials_rv,PrescreenTrials,b60a3,EXP8a,1,0,8
13,16,,6345b7f49677d36bd07c5a10,EXP8a_JF,0,b60a33fc2983644fe4faec8cb955a22db3467aaa8db95ce81e9953d3762f43e9,2776.583280801773,False,keypress,prescreenRsp_lablap_rv,1676,[],choice-response,Lab,636e065bbae6d6e5860db41b,2022-11-11 03:22:51-05:00,Lab,2865,17,PrescreenTrials_rv,PrescreenTrials,b60a3,EXP8a,1,0,8
14,17,,6345b7f49677d36bd07c5a10,EXP8a_JF,0,b60a33fc2983644fe4faec8cb955a22db3467aaa8db95ce81e9953d3762f43e9,2776.583280801773,False,keypress,prescreenRsp_fadfat_rv,3978,[],choice-response,Fad,636e065bbae6d6e5860db41b,2022-11-11 03:22:51-05:00,Fat,5096,18,PrescreenTrials_rv,PrescreenTrials,b60a3,EXP8a,0,0,1
15,18,,6345b7f49677d36bd07c5a10,EXP8a_JF,0,b60a33fc2983644fe4faec8cb955a22db3467aaa8db95ce81e9953d3762f43e9,2776.583280801773,False,keypress,prescreenRsp_cabcap_rv,2413,[],choice-response,Cab,636e065bbae6d6e5860db41b,2022-11-11 03:22:51-05:00,Cab,3573,19,PrescreenTrials_rv,PrescreenTrials,b60a3,EXP8a,1,0,8
16,19,,6345b7f49677d36bd07c5a10,EXP8a_JF,0,b60a33fc2983644fe4faec8cb955a22db3467aaa8db95ce81e9953d3762f43e9,2776.583280801773,False,keypress,prescreenRsp_fadfat_rv,1195,[],choice-response,Fad,636e065bbae6d6e5860db41b,2022-11-11 03:22:51-05:00,Fad,2509,20,PrescreenTrials_rv,PrescreenTrials,b60a3,EXP8a,1,0,8
17,20,,6345b7f49677d36bd07c5a10,EXP8a_JF,0,b60a33fc2983644fe4faec8cb955a22db3467aaa8db95ce81e9953d3762f43e9,2776.583280801773,False,keypress,prescreenRsp_bagback_rv,1285,[],choice-response,Back,636e065bbae6d6e5860db41b,2022-11-11 03:22:51-05:00,Back,2221,21,PrescreenTrials_rv,PrescreenTrials,b60a3,EXP8a,1,1,1
18,21,,6345b7f49677d36bd07c5a10,EXP8a_JF,0,b60a33fc2983644fe4faec8cb955a22db3467aaa8db95ce81e9953d3762f43e9,2776.583280801773,False,keypress,prescreenRsp_laglack_rv,2302,[],choice-response,Lag,636e065bbae6d6e5860db41b,2022-11-11 03:22:51-05:00,Lag,3456,22,PrescreenTrials_rv,PrescreenTrials,b60a3,EXP8a,1,0,8
19,22,,6345b7f49677d36bd07c5a10,EXP8a_JF,0,b60a33fc2983644fe4faec8cb955a22db3467aaa8db95ce81e9953d3762f43e9,2776.583280801773,False,keypress,prescreenRsp_cabcap_rv,1369,[],choice-response,Cap,636e065bbae6d6e5860db41b,2022-11-11 03:22:51-05:00,Cap,2324,23,PrescreenTrials_rv,PrescreenTrials,b60a3,EXP8a,1,1,1
20,23,,6345b7f49677d36bd07c5a10,EXP8a_JF,0,b60a33fc2983644fe4faec8cb955a22db3467aaa8db95ce81e9953d3762f43e9,2776.583280801773,False,keypress,prescreenRsp_laglack_rv,2012,[],choice-response,Lag,636e065bbae6d6e5860db41b,2022-11-11 03:22:51-05:00,Lack,2941,24,PrescreenTrials_rv,PrescreenTrials,b60a3,EXP8a,0,0,1
21,24,,6345b7f49677d36bd07c5a10,EXP8a_JF,0,b60a33fc2983644fe4faec8cb955a22db3467aaa8db95ce81e9953d3762f43e9,2776.583280801773,False,keypress,prescreenRsp_lablap_rv,4754,[],choice-response,Lab,636e065bbae6d6e5860db41b,2022-11-11 03:22:51-05:00,Lap,5697,25,PrescreenTrials_rv,PrescreenTrials,b60a3,EXP8a,0,0,1
22,25,,6345b7f49677d36bd07c5a10,EXP8a_JF,0,b60a33fc2983644fe4faec8cb955a22db3467aaa8db95ce81e9953d3762f43e9,2776.583280801773,False,keypress,prescreenRsp_bagback_rv,944,[],choice-response,Bag,636e065bbae6d6e5860db41b,2022-11-11 03:22:51-05:00,Bag,2052,26,PrescreenTrials_rv,PrescreenTrials,b60a3,EXP8a,1,0,8
23,26,,6345b7f49677d36bd07c5a10,EXP8a_JF,0,b60a33fc2983644fe4faec8cb955a22db3467aaa8db95ce81e9953d3762f43e9,2776.583280801773,False,keypress,prescreenRsp_beadbeat_rv,782,[],choice-response,Bead,636e065bbae6d6e5860db41b,2022-11-11 03:22:51-05:00,Beat,1755,27,PrescreenTrials_rv,PrescreenTrials,b60a3,EXP8a,0,0,1
24,27,,6345b7f49677d36bd07c5a10,EXP8a_JF,0,b60a33fc2983644fe4faec8cb955a22db3467aaa8db95ce81e9953d3762f43e9,2776.583280801773,False,keypress,prescreenRsp_bagback_rv,1084,[],choice-response,Bag,636e065bbae6d6e5860db41b,2022-11-11 03:22:51-05:00,Bag,2257,28,PrescreenTrials_rv,PrescreenTrials,b60a3,EXP8a,1,0,8
25,28,,6345b7f49677d36bd07c5a10,EXP8a_JF,0,b60a33fc2983644fe4faec8cb955a22db3467aaa8db95ce81e9953d3762f43e9,2776.583280801773,False,keypress,prescreenRsp_laglack_rv,861,[],choice-response,Lag,636e065bbae6d6e5860db41b,2022-11-11 03:22:51-05:00,Lag,2036,29,PrescreenTrials_rv,PrescreenTrials,b60a3,EXP8a,1,0,8
26,29,,6345b7f49677d36bd07c5a10,EXP8a_JF,0,b60a33fc2983644fe4faec8cb955a22db3467aaa8db95ce81e9953d3762f43e9,2776.583280801773,False,keypress,prescreenRsp_lablap_rv,933,[],choice-response,Lap,636e065bbae6d6e5860db41b,2022-11-11 03:22:51-05:00,Lap,1891,30,PrescreenTrials_rv,PrescreenTrials,b60a3,EXP8a,1,1,1
27,30,,6345b7f49677d36bd07c5a10,EXP8a_JF,0,b60a33fc2983644fe4faec8cb955a22db3467aaa8db95ce81e9953d3762f43e9,2776.583280801773,False,keypress,prescreenRsp_fadfat_rv,1462,[],choice-response,Fat,636e065bbae6d6e5860db41b,2022-11-11 03:22:51-05:00,Fat,2578,31,PrescreenTrials_rv,PrescreenTrials,b60a3,EXP8a,1,1,1
28,31,,6345b7f49677d36bd07c5a10,EXP8a_JF,0,b60a33fc2983644fe4faec8cb955a22db3467aaa8db95ce81e9953d3762f43e9,2776.583280801773,False,keypress,prescreenRsp_cabcap_rv,759,[],choice-response,Cap,636e065bbae6d6e5860db41b,2022-11-11 03:22:51-05:00,Cap,1685,32,PrescreenTrials_rv,PrescreenTrials,b60a3,EXP8a,1,1,1
29,32,,6345b7f49677d36bd07c5a10,EXP8a_JF,0,b60a33fc2983644fe4faec8cb955a22db3467aaa8db95ce81e9953d3762f43e9,2776.583280801773,False,keypress,prescreenRsp_laglack_rv,1852,[],choice-response,Lag,636e065bbae6d6e5860db41b,2022-11-11 03:22:51-05:00,Lack,2787,33,PrescreenTrials_rv,PrescreenTrials,b60a3,EXP8a,0,0,1
30,33,,6345b7f49677d36bd07c5a10,EXP8a_JF,0,b60a33fc2983644fe4faec8cb955a22db3467aaa8db95ce81e9953d3762f43e9,2776.583280801773,False,keypress,prescreenRsp_fadfat_rv,1641,[],choice-response,Fad,636e065bbae6d6e5860db41b,2022-11-11 03:22:51-05:00,Fad,2966,34,PrescreenTrials_rv,PrescreenTrials,b60a3,EXP8a,1,0,8
31,34,,6345b7f49677d36bd07c5a10,EXP8a_JF,0,b60a33fc2983644fe4faec8cb955a22db3467aaa8db95ce81e9953d3762f43e9,2776.583280801773,False,keypress,prescreenRsp_beadbeat_rv,1290,[],choice-response,Bead,636e065bbae6d6e5860db41b,2022-11-11 03:22:51-05:00,Bead,2480,35,PrescreenTrials_rv,PrescreenTrials,b60a3,EXP8a,1,0,8
32,35,,6345b7f49677d36bd07c5a10,EXP8a_JF,0,b60a33fc2983644fe4faec8cb955a22db3467aaa8db95ce81e9953d3762f43e9,2776.583280801773,False,keypress,prescreenRsp_beadbeat_rv,1551,[],choice-response,Bead,636e065bbae6d6e5860db41b,2022-11-11 03:22:51-05:00,Beat,2507,36,PrescreenTrials_rv,PrescreenTrials,b60a3,EXP8a,0,0,1
33,36,,6345b7f49677d36bd07c5a10,EXP8a_JF,0,b60a33fc2983644fe4faec8cb955a22db3467aaa8db95ce81e9953d3762f43e9,2776.583280801773,False,keypress,prescreenRsp_bagback_rv,954,[],choice-response,Back,636e065bbae6d6e5860db41b,2022-11-11 03:22:51-05:00,Back,1861,37,PrescreenTrials_rv,PrescreenTrials,b60a3,EXP8a,1,1,1
34,37,,6345b7f49677d36bd07c5a10,EXP8a_JF,0,b60a33fc2983644fe4faec8cb955a22db3467aaa8db95ce81e9953d3762f43e9,2776.583280801773,False,keypress,prescreenRsp_lablap_rv,1261,[],choice-response,Lab,636e065bbae6d6e5860db41b,2022-11-11 03:22:51-05:00,Lab,2417,38,PrescreenTrials_rv,PrescreenTrials,b60a3,EXP8a,1,0,8
35,38,,6345b7f49677d36bd07c5a10,EXP8a_JF,0,b60a33fc2983644fe4faec8cb955a22db3467aaa8db95ce81e9953d3762f43e9,2776.583280801773,False,keypress,prescreenRsp_cabcap_rv,682,[],choice-response,Cab,636e065bbae6d6e5860db41b,2022-11-11 03:22:51-05:00,Cab,1815,39,PrescreenTrials_rv,PrescreenTrials,b60a3,EXP8a,1,0,8
36,39,,6345b7f49677d36bd07c5a10,EXP8a_JF,0,b60a33fc2983644fe4faec8cb955a22db3467aaa8db95ce81e9953d3762f43e9,2776.583280801773,False,keypress,prescreenRsp_laglack_rv,1176,[],choice-response,Lack,636e065bbae6d6e5860db41b,2022-11-11 03:22:51-05:00,Lack,2096,40,PrescreenTrials_rv,PrescreenTrials,b60a3,EXP8a,1,1,1
37,40,,6345b7f49677d36bd07c5a10,EXP8a_JF,0,b60a33fc2983644fe4faec8cb955a22db3467aaa8db95ce81e9953d3762f43e9,2776.583280801773,False,keypress,prescreenRsp_laglack_rv,1218,[],choice-response,Lack,636e065bbae6d6e5860db41b,2022-11-11 03:22:51-05:00,Lag,2379,41,PrescreenTrials_rv,PrescreenTrials,b60a3,EXP8a,0,1,8
38,41,,6345b7f49677d36bd07c5a10,EXP8a_JF,0,b60a33fc2983644fe4faec8cb955a22db3467aaa8db95ce81e9953d3762f43e9,2776.583280801773,False,keypress,prescreenRsp_fadfat_rv,792,[],choice-response,Fad,636e065bbae6d6e5860db41b,2022-11-11 03:22:51-05:00,Fad,2105,42,PrescreenTrials_rv,PrescreenTrials,b60a3,EXP8a,1,0,8
39,42,,6345b7f49677d36bd07c5a10,EXP8a_JF,0,b60a33fc2983644fe4faec8cb955a22db3467aaa8db95ce81e9953d3762f43e9,2776.583280801773,False,keypress,prescreenRsp_bagback_rv,1010,[],choice-response,Bag,636e065bbae6d6e5860db41b,2022-11-11 03:22:51-05:00,Bag,2131,43,PrescreenTrials_rv,PrescreenTrials,b60a3,EXP8a,1,0,8
40,43,,6345b7f49677d36bd07c5a10,EXP8a_JF,0,b60a33fc2983644fe4faec8cb955a22db3467aaa8db95ce81e9953d3762f43e9,2776.583280801773,False,keypress,prescreenRsp_cabcap_rv,2718,[],choice-response,Cap,636e065bbae6d6e5860db41b,2022-11-11 03:22:51-05:00,Cap,3656,44,PrescreenTrials_rv,PrescreenTrials,b60a3,EXP8a,1,1,1
41,44,,6345b7f49677d36bd07c5a10,EXP8a_JF,0,b60a33fc2983644fe4faec8cb955a22db3467aaa8db95ce81e9953d3762f43e9,2776.583280801773,False,keypress,prescreenRsp_lablap_rv,1340,[],choice-response,Lab,636e065bbae6d6e5860db41b,2022-11-11 03:22:51-05:00,Lap,2291,45,PrescreenTrials_rv,PrescreenTrials,b60a3,EXP8a,0,0,1
42,45,,6345b7f49677d36bd07c5a10,EXP8a_JF,0,b60a33fc2983644fe4faec8cb955a22db3467aaa8db95ce81e9953d3762f43e9,2776.583280801773,False,keypress,prescreenRsp_lablap_rv,600,[],choice-response,Lab,636e065bbae6d6e5860db41b,2022-11-11 03:22:51-05:00,Lab,1760,46,PrescreenTrials_rv,PrescreenTrials,b60a3,EXP8a,1,0,8
43,46,,6345b7f49677d36bd07c5a10,EXP8a_JF,0,b60a33fc2983644fe4faec8cb955a22db3467aaa8db95ce81e9953d3762f43e9,2776.583280801773,False,keypress,prescreenRsp_cabcap_rv,1040,[],choice-response,Cab,636e065bbae6d6e5860db41b,2022-11-11 03:22:51-05:00,Cab,2205,47,PrescreenTrials_rv,PrescreenTrials,b60a3,EXP8a,1,0,8
44,47,,6345b7f49677d36bd07c5a10,EXP8a_JF,0,b60a33fc2983644fe4faec8cb955a22db3467aaa8db95ce81e9953d3762f43e9,2776.583280801773,False,keypress,prescreenRsp_fadfat_rv,1415,[],choice-response,Fad,636e065bbae6d6e5860db41b,2022-11-11 03:22:51-05:00,Fat,2555,48,PrescreenTrials_rv,PrescreenTrials,b60a3,EXP8a,0,0,1
45,48,,6345b7f49677d36bd07c5a10,EXP8a_JF,0,b60a33fc2983644fe4faec8cb955a22db3467aaa8db95ce81e9953d3762f43e9,2776.583280801773,False,keypress,prescreenRsp_bagback_rv,1721,[],choice-response,Bag,636e065bbae6d6e5860db41b,2022-11-11 03:22:51-05:00,Back,2636,49,PrescreenTrials_rv,PrescreenTrials,b60a3,EXP8a,0,0,1
46,49,,6345b7f49677d36bd07c5a10,EXP8a_JF,0,b60a33fc2983644fe4faec8cb955a22db3467aaa8db95ce81e9953d3762f43e9,2776.583280801773,False,keypress,prescreenRsp_beadbeat_rv,895,[],choice-response,Bead,636e065bbae6d6e5860db41b,2022-11-11 03:22:51-05:00,Beat,1837,50,PrescreenTrials_rv,PrescreenTrials,b60a3,EXP8a,0,0,1
47,50,,6345b7f49677d36bd07c5a10,EXP8a_JF,0,b60a33fc2983644fe4faec8cb955a22db3467aaa8db95ce81e9953d3762f43e9,2776.583280801773,False,keypress,prescreenRsp_beadbeat_rv,479,[],choice-response,Bead,636e065bbae6d6e5860db41b,2022-11-11 03:22:51-05:00,Bead,1655,51,PrescreenTrials_rv,PrescreenTrials,b60a3,EXP8a,1,0,8
48,51,,6345b7f49677d36bd07c5a10,EXP8a_JF,0,b60a33fc2983644fe4faec8cb955a22db3467aaa8db95ce81e9953d3762f43e9,2776.583280801773,False,keypress,prescreenRsp_fadfat_rv,1550,[],choice-response,Fat,636e065bbae6d6e5860db41b,2022-11-11 03:22:51-05:00,Fat,2654,52,PrescreenTrials_rv,PrescreenTrials,b60a3,EXP8a,1,1,1
49,52,,6345b7f49677d36bd07c5a10,EXP8a_JF,0,b60a33fc2983644fe4faec8cb955a22db3467aaa8db95ce81e9953d3762f43e9,2776.583280801773,False,keypress,prescreenRsp_laglack_rv,847,[],choice-response,Lag,636e065bbae6d6e5860db41b,2022-11-11 03:22:51-05:00,Lag,2006,53,PrescreenTrials_rv,PrescreenTrials,b60a3,EXP8a,1,0,8
50,53,,6345b7f49677d36bd07c5a10,EXP8a_JF,0,b60a33fc2983644fe4faec8cb955a22db3467aaa8db95ce81e9953d3762f43e9,2776.583280801773,False,keypress,prescreenRsp_beadbeat_rv,464,[],choice-response,Bead,636e065bbae6d6e5860db41b,2022-11-11 03:22:51-05:00,Bead,1637,54,PrescreenTrials_rv,PrescreenTrials,b60a3,EXP8a,1,0,8
51,54,,6345b7f49677d36bd07c5a10,EXP8a_JF,0,b60a33fc2983644fe4faec8cb955a22db3467aaa8db95ce81e9953d3762f43e9,2776.583280801773,False,keypress,prescreenRsp_cabcap_rv,598,[],choice-response,Cap,636e065bbae6d6e5860db41b,2022-11-11 03:22:51-05:00,Cap,1521,55,PrescreenTrials_rv,PrescreenTrials,b60a3,EXP8a,1,1,1
52,55,,6345b7f49677d36bd07c5a10,EXP8a_JF,0,b60a33fc2983644fe4faec8cb955a22db3467aaa8db95ce81e9953d3762f43e9,2776.583280801773,False,keypress,prescreenRsp_fadfat_rv,1045,[],choice-response,Fad,636e065bbae6d6e5860db41b,2022-11-11 03:22:51-05:00,Fad,2366,56,PrescreenTrials_rv,PrescreenTrials,b60a3,EXP8a,1,0,8
53,56,,6345b7f49677d36bd07c5a10,EXP8a_JF,0,b60a33fc2983644fe4faec8cb955a22db3467aaa8db95ce81e9953d3762f43e9,2776.583280801773,False,keypress,prescreenRsp_cabcap_rv,1150,[],choice-response,Cab,636e065bbae6d6e5860db41b,2022-11-11 03:22:51-05:00,Cab,2277,57,PrescreenTrials_rv,PrescreenTrials,b60a3,EXP8a,1,0,8
54,57,,6345b7f49677d36bd07c5a10,EXP8a_JF,0,b60a33fc2983644fe4faec8cb955a22db3467aaa8db95ce81e9953d3762f43e9,2776.583280801773,False,keypress,prescreenRsp_beadbeat_rv,909,[],choice-response,Bead,636e065bbae6d6e5860db41b,2022-11-11 03:22:51-05:00,Beat,1861,58,PrescreenTrials_rv,PrescreenTrials,b60a3,EXP8a,0,0,1
55,58,,6345b7f49677d36bd07c5a10,EXP8a_JF,0,b60a33fc2983644fe4faec8cb955a22db3467aaa8db95ce81e9953d3762f43e9,2776.583280801773,False,keypress,prescreenRsp_lablap_rv,786,[],choice-response,Lab,636e065bbae6d6e5860db41b,2022-11-11 03:22:51-05:00,Lab,1952,59,PrescreenTrials_rv,PrescreenTrials,b60a3,EXP8a,1,0,8
56,59,,6345b7f49677d36bd07c5a10,EXP8a_JF,0,b60a33fc2983644fe4faec8cb955a22db3467aaa8db95ce81e9953d3762f43e9,2776.583280801773,False,keypress,prescreenRsp_bagback_rv,971,[],choice-response,Bag,636e065bbae6d6e5860db41b,2022-11-11 03:22:51-05:00,Bag,2083,60,PrescreenTrials_rv,PrescreenTrials,b60a3,EXP8a,1,0,8
57,60,,6345b7f49677d36bd07c5a10,EXP8a_JF,0,b60a33fc2983644fe4faec8cb955a22db3467aaa8db95ce81e9953d3762f43e9,2776.583280801773,False,keypress,prescreenRsp_bagback_rv,512,[],choice-response,Back,636e065bbae6d6e5860db41b,2022-11-11 03:22:51-05:00,Back,1413,61,PrescreenTrials_rv,PrescreenTrials,b60a3,EXP8a,1,1,1
58,61,,6345b7f49677d36bd07c5a10,EXP8a_JF,0,b60a33fc2983644fe4faec8cb955a22db3467aaa8db95ce81e9953d3762f43e9,2776.583280801773,False,keypress,prescreenRsp_lablap_rv,1221,[],choice-response,Lab,636e065bbae6d6e5860db41b,2022-11-11 03:22:51-05:00,Lap,2158,62,PrescreenTrials_rv,PrescreenTrials,b60a3,EXP8a,0,0,1
59,62,,6345b7f49677d36bd07c5a10,EXP8a_JF,0,b60a33fc2983644fe4faec8cb955a22db3467aaa8db95ce81e9953d3762f43e9,2776.583280801773,False,keypress,prescreenRsp_laglack_rv,784,[],choice-response,Lack,636e065bbae6d6e5860db41b,2022-11-11 03:22:51-05:00,Lack,1717,63,PrescreenTrials_rv,PrescreenTrials,b60a3,EXP8a,1,1,1
60,63,,6345b7f49677d36bd07c5a10,EXP8a_JF,0,b60a33fc2983644fe4faec8cb955a22db3467aaa8db95ce81e9953d3762f43e9,2776.583280801773,False,keypress,prescreenRsp_beadbeat_rv,735,[],choice-response,Bead,636e065bbae6d6e5860db41b,2022-11-11 03:22:51-05:00,Bead,1932,64,PrescreenTrials_rv,PrescreenTrials,b60a3,EXP8a,1,0,8
61,64,,6345b7f49677d36bd07c5a10,EXP8a_JF,0,b60a33fc2983644fe4faec8cb955a22db3467aaa8db95ce81e9953d3762f43e9,2776.583280801773,False,keypress,prescreenRsp_lablap_rv,1460,[],choice-response,Lap,636e065bbae6d6e5860db41b,2022-11-11 03:22:51-05:00,Lap,2406,65,PrescreenTrials_rv,PrescreenTrials,b60a3,EXP8a,1,1,1
62,65,,6345b7f49677d36bd07c5a10,EXP8a_JF,0,b60a33fc2983644fe4faec8cb955a22db3467aaa8db95ce81e9953d3762f43e9,2776.583280801773,False,keypress,prescreenRsp_beadbeat_rv,809,[],choice-response,Bead,636e065bbae6d6e5860db41b,2022-11-11 03:22:51-05:00,Beat,1762,66,PrescreenTrials_rv,PrescreenTrials,b60a3,EXP8a,0,0,1
63,66,,6345b7f49677d36bd07c5a10,EXP8a_JF,0,b60a33fc2983644fe4faec8cb955a22db3467aaa8db95ce81e9953d3762f43e9,2776.583280801773,False,keypress,prescreenRsp_laglack_rv,1729,[],choice-response,Lag,636e065bbae6d6e5860db41b,2022-11-11 03:22:51-05:00,Lag,2878,67,PrescreenTrials_rv,PrescreenTrials,b60a3,EXP8a,1,0,8
64,67,,6345b7f49677d36bd07c5a10,EXP8a_JF,0,b60a33fc2983644fe4faec8cb955a22db3467aaa8db95ce81e9953d3762f43e9,2776.583280801773,False,keypress,prescreenRsp_lablap_rv,1030,[],choice-response,Lab,636e065bbae6d6e5860db41b,2022-11-11 03:22:51-05:00,Lab,2194,68,PrescreenTrials_rv,PrescreenTrials,b60a3,EXP8a,1,0,8
65,68,,6345b7f49677d36bd07c5a10,EXP8a_JF,0,b60a33fc2983644fe4faec8cb955a22db3467aaa8db95ce81e9953d3762f43e9,2776.583280801773,False,keypress,prescreenRsp_fadfat_rv,1293,[],choice-response,Fad,636e065bbae6d6e5860db41b,2022-11-11 03:22:51-05:00,Fat,2409,69,PrescreenTrials_rv,PrescreenTrials,b60a3,EXP8a,0,0,1
66,69,,6345b7f49677d36bd07c5a10,EXP8a_JF,0,b60a33fc2983644fe4faec8cb955a22db3467aaa8db95ce81e9953d3762f43e9,2776.583280801773,False,keypress,prescreenRsp_bagback_rv,559,[],choice-response,Bag,636e065bbae6d6e5860db41b,2022-11-11 03:22:51-05:00,Bag,1661,70,PrescreenTrials_rv,PrescreenTrials,b60a3,EXP8a,1,0,8
67,70,,6345b7f49677d36bd07c5a10,EXP8a_JF,0,b60a33fc2983644fe4faec8cb955a22db3467aaa8db95ce81e9953d3762f43e9,2776.583280801773,False,keypress,prescreenRsp_bagback_rv,906,[],choice-response,Back,636e065bbae6d6e5860db41b,2022-11-11 03:22:51-05:00,Back,1813,71,PrescreenTrials_rv,PrescreenTrials,b60a3,EXP8a,1,1,1
68,71,,6345b7f49677d36bd07c5a10,EXP8a_JF,0,b60a33fc2983644fe4faec8cb955a22db3467aaa8db95ce81e9953d3762f43e9,2776.583280801773,False,keypress,prescreenRsp_cabcap_rv,663,[],choice-response,Cab,636e065bbae6d6e5860db41b,2022-11-11 03:22:51-05:00,Cab,1797,72,PrescreenTrials_rv,PrescreenTrials,b60a3,EXP8a,1,0,8
69,72,,6345b7f49677d36bd07c5a10,EXP8a_JF,0,b60a33fc2983644fe4faec8cb955a22db3467aaa8db95ce81e9953d3762f43e9,2776.583280801773,False,keypress,prescreenRsp_fadfat_rv,643,[],choice-response,Fad,636e065bbae6d6e5860db41b,2022-11-11 03:22:51-05:00,Fad,1958,73,PrescreenTrials_rv,PrescreenTrials,b60a3,EXP8a,1,0,8
70,73,,6345b7f49677d36bd07c5a10,EXP8a_JF,0,b60a33fc2983644fe4faec8cb955a22db3467aaa8db95ce81e9953d3762f43e9,2776.583280801773,False,keypress,prescreenRsp_cabcap_rv,574,[],choice-response,Cap,636e065bbae6d6e5860db41b,2022-11-11 03:22:51-05:00,Cap,1505,74,PrescreenTrials_rv,PrescreenTrials,b60a3,EXP8a,1,1,1
71,74,,6345b7f49677d36bd07c5a10,EXP8a_JF,0,b60a33fc2983644fe4faec8cb955a22db3467aaa8db95ce81e9953d3762f43e9,2776.583280801773,False,keypress,prescreenRsp_laglack_rv,923,[],choice-response,Lack,636e065bbae6d6e5860db41b,2022-11-11 03:22:51-05:00,Lack,1850,75,PrescreenTrials_rv,PrescreenTrials,b60a3,EXP8a,1,1,1
72,75,,6345b7f49677d36bd07c5a10,EXP8a_JF,0,b60a33fc2983644fe4faec8cb955a22db3467aaa8db95ce81e9953d3762f43e9,2776.583280801773,False,keypress,prescreenRsp_bagback_rv,647,[],choice-response,Back,636e065bbae6d6e5860db41b,2022-11-11 03:22:51-05:00,Back,1556,76,PrescreenTrials_rv,PrescreenTrials,b60a3,EXP8a,1,1,1
73,76,,6345b7f49677d36bd07c5a10,EXP8a_JF,0,b60a33fc2983644fe4faec8cb955a22db3467aaa8db95ce81e9953d3762f43e9,2776.583280801773,False,keypress,prescreenRsp_cabcap_rv,1387,[],choice-response,Cap,636e065bbae6d6e5860db41b,2022-11-11 03:22:51-05:00,Cap,2318,77,PrescreenTrials_rv,PrescreenTrials,b60a3,EXP8a,1,1,1
74,77,,6345b7f49677d36bd07c5a10,EXP8a_JF,0,b60a33fc2983644fe4faec8cb955a22db3467aaa8db95ce81e9953d3762f43e9,2776.583280801773,False,keypress,prescreenRsp_lablap_rv,1218,[],choice-response,Lab,636e065bbae6d6e5860db41b,2022-11-11 03:22:51-05:00,Lab,2388,78,PrescreenTrials_rv,PrescreenTrials,b60a3,EXP8a,1,0,8
75,78,,6345b7f49677d36bd07c5a10,EXP8a_JF,0,b60a33fc2983644fe4faec8cb955a22db3467aaa8db95ce81e9953d3762f43e9,2776.583280801773,False,keypress,prescreenRsp_lablap_rv,1335,[],choice-response,Lap,636e065bbae6d6e5860db41b,2022-11-11 03:22:51-05:00,Lap,2263,79,PrescreenTrials_rv,PrescreenTrials,b60a3,EXP8a,1,1,1
76,79,,6345b7f49677d36bd07c5a10,EXP8a_JF,0,b60a33fc2983644fe4faec8cb955a22db3467aaa8db95ce81e9953d3762f43e9,2776.583280801773,False,keypress,prescreenRsp_laglack_rv,759,[],choice-response,Lack,636e065bbae6d6e5860db41b,2022-11-11 03:22:51-05:00,Lag,1911,80,PrescreenTrials_rv,PrescreenTrials,b60a3,EXP8a,0,1,8
77,80,,6345b7f49677d36bd07c5a10,EXP8a_JF,0,b60a33fc2983644fe4faec8cb955a22db3467aaa8db95ce81e9953d3762f43e9,2776.583280801773,False,keypress,prescreenRsp_laglack_rv,1657,[],choice-response,Lag,636e065bbae6d6e5860db41b,2022-11-11 03:22:51-05:00,Lack,2592,81,PrescreenTrials_rv,PrescreenTrials,b60a3,EXP8a,0,0,1
78,81,,6345b7f49677d36bd07c5a10,EXP8a_JF,0,b60a33fc2983644fe4faec8cb955a22db3467aaa8db95ce81e9953d3762f43e9,2776.583280801773,False,keypress,prescreenRsp_beadbeat_rv,1034,[],choice-response,Bead,636e065bbae6d6e5860db41b,2022-11-11 03:22:51-05:00,Bead,2218,82,PrescreenTrials_rv,PrescreenTrials,b60a3,EXP8a,1,0,8
79,82,,6345b7f49677d36bd07c5a10,EXP8a_JF,0,b60a33fc2983644fe4faec8cb955a22db3467aaa8db95ce81e9953d3762f43e9,2776.583280801773,False,keypress,prescreenRsp_fadfat_rv,595,[],choice-response,Fad,636e065bbae6d6e5860db41b,2022-11-11 03:22:51-05:00,Fad,1904,83,PrescreenTrials_rv,PrescreenTrials,b60a3,EXP8a,1,0,8
80,83,,6345b7f49677d36bd07c5a10,EXP8a_JF,0,b60a33fc2983644fe4faec8cb955a22db3467aaa8db95ce81e9953d3762f43e9,2776.583280801773,False,keypress,prescreenRsp_cabcap_rv,743,[],choice-response,Cab,636e065bbae6d6e5860db41b,2022-11-11 03:22:51-05:00,Cab,1884,84,PrescreenTrials_rv,PrescreenTrials,b60a3,EXP8a,1,0,8
81,84,,6345b7f49677d36bd07c5a10,EXP8a_JF,0,b60a33fc2983644fe4faec8cb955a22db3467aaa8db95ce81e9953d3762f43e9,2776.583280801773,False,keypress,prescreenRsp_fadfat_rv,969,[],choice-response,Fad,636e065bbae6d6e5860db41b,2022-11-11 03:22:51-05:00,Fat,2075,85,PrescreenTrials_rv,PrescreenTrials,b60a3,EXP8a,0,0,1
82,85,,6345b7f49677d36bd07c5a10,EXP8a_JF,0,b60a33fc2983644fe4faec8cb955a22db3467aaa8db95ce81e9953d3762f43e9,2776.583280801773,False,keypress,prescreenRsp_beadbeat_rv,747,[],choice-response,Bead,636e065bbae6d6e5860db41b,2022-11-11 03:22:51-05:00,Beat,1732,86,PrescreenTrials_rv,PrescreenTrials,b60a3,EXP8a,0,0,1
83,86,,6345b7f49677d36bd07c5a10,EXP8a_JF,0,b60a33fc2983644fe4faec8cb955a22db3467aaa8db95ce81e9953d3762f43e9,2776.583280801773,False,keypress,prescreenRsp_bagback_rv,504,[],choice-response,Bag,636e065bbae6d6e5860db41b,2022-11-11 03:22:51-05:00,Bag,1619,87,PrescreenTrials_rv,PrescreenTrials,b60a3,EXP8a,1,0,8
84,87,,6345b7f49677d36bd07c5a10,EXP8a_JF,0,b60a33fc2983644fe4faec8cb955a22db3467aaa8db95ce81e9953d3762f43e9,2776.583280801773,False,keypress,prescreenRsp_bagback_rv,2338,[],choice-response,Back,636e065bbae6d6e5860db41b,2022-11-11 03:22:51-05:00,Back,3242,88,PrescreenTrials_rv,PrescreenTrials,b60a3,EXP8a,1,1,1
85,88,,6345b7f49677d36bd07c5a10,EXP8a_JF,0,b60a33fc2983644fe4faec8cb955a22db3467aaa8db95ce81e9953d3762f43e9,2776.583280801773,False,keypress,prescreenRsp_beadbeat_rv,995,[],choice-response,Bead,636e065bbae6d6e5860db41b,2022-11-11 03:22:51-05:00,Bead,2182,89,PrescreenTrials_rv,PrescreenTrials,b60a3,EXP8a,1,0,8
86,89,,6345b7f49677d36bd07c5a10,EXP8a_JF,0,b60a33fc2983644fe4faec8cb955a22db3467aaa8db95ce81e9953d3762f43e9,2776.583280801773,False,keypress,prescreenRsp_lablap_rv,1524,[],choice-response,Lap,636e065bbae6d6e5860db41b,2022-11-11 03:22:51-05:00,Lap,2451,90,PrescreenTrials_rv,PrescreenTrials,b60a3,EXP8a,1,1,1
87,90,,6345b7f49677d36bd07c5a10,EXP8a_JF,0,b60a33fc2983644fe4faec8cb955a22db3467aaa8db95ce81e9953d3762f43e9,2776.583280801773,False,keypress,prescreenRsp_cabcap_rv,1312,[],choice-response,Cap,636e065bbae6d6e5860db41b,2022-11-11 03:22:51-05:00,Cap,2243,91,PrescreenTrials_rv,PrescreenTrials,b60a3,EXP8a,1,1,1
88,91,,6345b7f49677d36bd07c5a10,EXP8a_JF,0,b60a33fc2983644fe4faec8cb955a22db3467aaa8db95ce81e9953d3762f43e9,2776.583280801773,False,keypress,prescreenRsp_beadbeat_rv,1940,[],choice-response,Beat,636e065bbae6d6e5860db41b,2022-11-11 03:22:51-05:00,Beat,2888,92,PrescreenTrials_rv,PrescreenTrials,b60a3,EXP8a,1,1,1
89,92,,6345b7f49677d36bd07c5a10,EXP8a_JF,0,b60a33fc2983644fe4faec8cb955a22db3467aaa8db95ce81e9953d3762f43e9,2776.583280801773,False,keypress,prescreenRsp_fadfat_rv,1634,[],choice-response,Fat,636e065bbae6d6e5860db41b,2022-11-11 03:22:51-05:00,Fat,2765,93,PrescreenTrials_rv,PrescreenTrials,b60a3,EXP8a,1,1,1
90,93,,6345b7f49677d36bd07c5a10,EXP8a_JF,0,b60a33fc2983644fe4faec8cb955a22db3467aaa8db95ce81e9953d3762f43e9,2776.583280801773,False,keypress,prescreenRsp_fadfat_rv,546,[],choice-response,Fad,636e065bbae6d6e5860db41b,2022-11-11 03:22:51-05:00,Fad,1854,94,PrescreenTrials_rv,PrescreenTrials,b60a3,EXP8a,1,0,8
91,94,,6345b7f49677d36bd07c5a10,EXP8a_JF,0,b60a33fc2983644fe4faec8cb955a22db3467aaa8db95ce81e9953d3762f43e9,2776.583280801773,False,keypress,prescreenRsp_laglack_rv,901,[],choice-response,Lag,636e065bbae6d6e5860db41b,2022-11-11 03:22:51-05:00,Lag,2041,95,PrescreenTrials_rv,PrescreenTrials,b60a3,EXP8a,1,0,8
92,95,,6345b7f49677d36bd07c5a10,EXP8a_JF,0,b60a33fc2983644fe4faec8cb955a22db3467aaa8db95ce81e9953d3762f43e9,2776.583280801773,False,keypress,prescreenRsp_laglack_rv,1228,[],choice-response,Lack,636e065bbae6d6e5860db41b,2022-11-11 03:22:51-05:00,Lack,2160,96,PrescreenTrials_rv,PrescreenTrials,b60a3,EXP8a,1,1,1
93,96,,6345b7f49677d36bd07c5a10,EXP8a_JF,0,b60a33fc2983644fe4faec8cb955a22db3467aaa8db95ce81e9953d3762f43e9,2776.583280801773,False,keypress,prescreenRsp_cabcap_rv,971,[],choice-response,Cab,636e065bbae6d6e5860db41b,2022-11-11 03:22:51-05:00,Cab,2112,97,PrescreenTrials_rv,PrescreenTrials,b60a3,EXP8a,1,0,8
94,97,,6345b7f49677d36bd07c5a10,EXP8a_JF,0,b60a33fc2983644fe4faec8cb955a22db3467aaa8db95ce81e9953d3762f43e9,2776.583280801773,False,keypress,prescreenRsp_lablap_rv,995,[],choice-response,Lab,636e065bbae6d6e5860db41b,2022-11-11 03:22:51-05:00,Lab,2151,98,PrescreenTrials_rv,PrescreenTrials,b60a3,EXP8a,1,0,8
95,98,,6345b7f49677d36bd07c5a10,EXP8a_JF,0,b60a33fc2983644fe4faec8cb955a22db3467aaa8db95ce81e9953d3762f43e9,2776.583280801773,False,keypress,prescreenRsp_bagback_rv,638,[],choice-response,Bag,636e065bbae6d6e5860db41b,2022-11-11 03:22:51-05:00,Bag,1751,99,PrescreenTrials_rv,PrescreenTrials,b60a3,EXP8a,1,0,8
96,99,,6345b7f49677d36bd07c5a10,EXP8a_JF,0,b60a33fc2983644fe4faec8cb955a22db3467aaa8db95ce81e9953d3762f43e9,2776.583280801773,False,keypress,prescreenRsp_laglack_rv,1257,[],choice-response,Lack,636e065bbae6d6e5860db41b,2022-11-11 03:22:51-05:00,Lack,2194,100,PrescreenTrials_rv,PrescreenTrials,b60a3,EXP8a,1,1,1
97,100,,6345b7f49677d36bd07c5a10,EXP8a_JF,0,b60a33fc2983644fe4faec8cb955a22db3467aaa8db95ce81e9953d3762f43e9,2776.583280801773,False,keypress,prescreenRsp_cabcap_rv,671,[],choice-response,Cap,636e065bbae6d6e5860db41b,2022-11-11 03:22:51-05:00,Cap,1600,101,PrescreenTrials_rv,PrescreenTrials,b60a3,EXP8a,1,1,1
98,101,,6345b7f49677d36bd07c5a10,EXP8a_JF,0,b60a33fc2983644fe4faec8cb955a22db3467aaa8db95ce81e9953d3762f43e9,2776.583280801773,False,keypress,prescreenRsp_bagback_rv,1852,[],choice-response,Bag,636e065bbae6d6e5860db41b,2022-11-11 03:22:51-05:00,Back,2754,102,PrescreenTrials_rv,PrescreenTrials,b60a3,EXP8a,0,0,1
99,102,,6345b7f49677d36bd07c5a10,EXP8a_JF,0,b60a33fc2983644fe4faec8cb955a22db3467aaa8db95ce81e9953d3762f43e9,2776.583280801773,False,keypress,prescreenRsp_beadbeat_rv,1292,[],choice-response,Bead,636e065bbae6d6e5860db41b,2022-11-11 03:22:51-05:00,Bead,2466,103,PrescreenTrials_rv,PrescreenTrials,b60a3,EXP8a,1,0,8
100,103,,6345b7f49677d36bd07c5a10,EXP8a_JF,0,b60a33fc2983644fe4faec8cb955a22db3467aaa8db95ce81e9953d3762f43e9,2776.583280801773,False,keypress,prescreenRsp_cabcap_rv,1487,[],choice-response,Cap,636e065bbae6d6e5860db41b,2022-11-11 03:22:51-05:00,Cab,2621,104,PrescreenTrials_rv,PrescreenTrials,b60a3,EXP8a,0,1,8
101,104,,6345b7f49677d36bd07c5a10,EXP8a_JF,0,b60a33fc2983644fe4faec8cb955a22db3467aaa8db95ce81e9953d3762f43e9,2776.583280801773,False,keypress,prescreenRsp_fadfat_rv,819,[],choice-response,Fad,636e065bbae6d6e5860db41b,2022-11-11 03:22:51-05:00,Fat,1992,105,PrescreenTrials_rv,PrescreenTrials,b60a3,EXP8a,0,0,1
102,105,,6345b7f49677d36bd07c5a10,EXP8a_JF,0,b60a33fc2983644fe4faec8cb955a22db3467aaa8db95ce81e9953d3762f43e9,2776.583280801773,False,keypress,prescreenRsp_lablap_rv,2317,[],choice-response,Lab,636e065bbae6d6e5860db41b,2022-11-11 03:22:51-05:00,Lap,3251,106,PrescreenTrials_rv,PrescreenTrials,b60a3,EXP8a,0,0,1
103,106,,6345b7f49677d36bd07c5a10,EXP8a_JF,0,b60a33fc2983644fe4faec8cb955a22db3467aaa8db95ce81e9953d3762f43e9,2776.583280801773,False,keypress,prescreenRsp_bagback_rv,637,[],choice-response,Bag,636e065bbae6d6e5860db41b,2022-11-11 03:22:51-05:00,Bag,1814,107,PrescreenTrials_rv,PrescreenTrials,b60a3,EXP8a,1,0,8
104,107,,6345b7f49677d36bd07c5a10,EXP8a_JF,0,b60a33fc2983644fe4faec8cb955a22db3467aaa8db95ce81e9953d3762f43e9,2776.583280801773,False,keypress,prescreenRsp_fadfat_rv,863,[],choice-response,Fad,636e065bbae6d6e5860db41b,2022-11-11 03:22:51-05:00,Fad,2252,108,PrescreenTrials_rv,PrescreenTrials,b60a3,EXP8a,1,0,8
105,108,,6345b7f49677d36bd07c5a10,EXP8a_JF,0,b60a33fc2983644fe4faec8cb955a22db3467aaa8db95ce81e9953d3762f43e9,2776.583280801773,False,keypress,prescreenRsp_lablap_rv,695,[],choice-response,Lab,636e065bbae6d6e5860db41b,2022-11-11 03:22:51-05:00,Lab,1909,109,PrescreenTrials_rv,PrescreenTrials,b60a3,EXP8a,1,0,8
106,109,,6345b7f49677d36bd07c5a10,EXP8a_JF,0,b60a33fc2983644fe4faec8cb955a22db3467aaa8db95ce81e9953d3762f43e9,2776.583280801773,False,keypress,prescreenRsp_beadbeat_rv,1239,[],choice-response,Bead,636e065bbae6d6e5860db41b,2022-11-11 03:22:51-05:00,Beat,2202,110,PrescreenTrials_rv,PrescreenTrials,b60a3,EXP8a,0,0,1
107,110,,6345b7f49677d36bd07c5a10,EXP8a_JF,0,b60a33fc2983644fe4faec8cb955a22db3467aaa8db95ce81e9953d3762f43e9,2776.583280801773,False,keypress,prescreenRsp_laglack_rv,1338,[],choice-response,Lack,636e065bbae6d6e5860db41b,2022-11-11 03:22:51-05:00,Lag,2484,111,PrescreenTrials_rv,PrescreenTrials,b60a3,EXP8a,0,1,8
108,111,,6345b7f49677d36bd07c5a10,EXP8a_JF,0,b60a33fc2983644fe4faec8cb955a22db3467aaa8db95ce81e9953d3762f43e9,2776.583280801773,False,keypress,prescreenRsp_beadbeat_rv,699,[],choice-response,Bead,636e065bbae6d6e5860db41b,2022-11-11 03:22:51-05:00,Bead,1871,112,PrescreenTrials_rv,PrescreenTrials,b60a3,EXP8a,1,0,8
109,112,,6345b7f49677d36bd07c5a10,EXP8a_JF,0,b60a33fc2983644fe4faec8cb955a22db3467aaa8db95ce81e9953d3762f43e9,2776.583280801773,False,keypress,prescreenRsp_lablap_rv,863,[],choice-response,Lap,636e065bbae6d6e5860db41b,2022-11-11 03:22:51-05:00,Lap,1831,113,PrescreenTrials_rv,PrescreenTrials,b60a3,EXP8a,1,1,1
110,113,,6345b7f49677d36bd07c5a10,EXP8a_JF,0,b60a33fc2983644fe4faec8cb955a22db3467aaa8db95ce81e9953d3762f43e9,2776.583280801773,False,keypress,prescreenRsp_laglack_rv,848,[],choice-response,Lack,636e065bbae6d6e5860db41b,2022-11-11 03:22:51-05:00,Lack,1803,114,PrescreenTrials_rv,PrescreenTrials,b60a3,EXP8a,1,1,1
111,114,,6345b7f49677d36bd07c5a10,EXP8a_JF,0,b60a33fc2983644fe4faec8cb955a22db3467aaa8db95ce81e9953d3762f43e9,2776.583280801773,False,keypress,prescreenRsp_laglack_rv,727,[],choice-response,Lack,636e065bbae6d6e5860db41b,2022-11-11 03:22:51-05:00,Lag,1945,115,PrescreenTrials_rv,PrescreenTrials,b60a3,EXP8a,0,1,8
112,115,,6345b7f49677d36bd07c5a10,EXP8a_JF,0,b60a33fc2983644fe4faec8cb955a22db3467aaa8db95ce81e9953d3762f43e9,2776.583280801773,False,keypress,prescreenRsp_cabcap_rv,1050,[],choice-response,Cab,636e065bbae6d6e5860db41b,2022-11-11 03:22:51-05:00,Cab,2190,116,PrescreenTrials_rv,PrescreenTrials,b60a3,EXP8a,1,0,8
113,116,,6345b7f49677d36bd07c5a10,EXP8a_JF,0,b60a33fc2983644fe4faec8cb955a22db3467aaa8db95ce81e9953d3762f43e9,2776.583280801773,False,keypress,prescreenRsp_beadbeat_rv,1452,[],choice-response,Bead,636e065bbae6d6e5860db41b,2022-11-11 03:22:51-05:00,Beat,2424,117,PrescreenTrials_rv,PrescreenTrials,b60a3,EXP8a,0,0,1
114,117,,6345b7f49677d36bd07c5a10,EXP8a_JF,0,b60a33fc2983644fe4faec8cb955a22db3467aaa8db95ce81e9953d3762f43e9,2776.583280801773,False,keypress,prescreenRsp_lablap_rv,1300,[],choice-response,Lab,636e065bbae6d6e5860db41b,2022-11-11 03:22:51-05:00,Lab,2494,118,PrescreenTrials_rv,PrescreenTrials,b60a3,EXP8a,1,0,8
115,118,,6345b7f49677d36bd07c5a10,EXP8a_JF,0,b60a33fc2983644fe4faec8cb955a22db3467aaa8db95ce81e9953d3762f43e9,2776.583280801773,False,keypress,prescreenRsp_fadfat_rv,537,[],choice-response,Fad,636e065bbae6d6e5860db41b,2022-11-11 03:22:51-05:00,Fad,1945,119,PrescreenTrials_rv,PrescreenTrials,b60a3,EXP8a,1,0,8
116,119,,6345b7f49677d36bd07c5a10,EXP8a_JF,0,b60a33fc2983644fe4faec8cb955a22db3467aaa8db95ce81e9953d3762f43e9,2776.583280801773,False,keypress,prescreenRsp_cabcap_rv,552,[],choice-response,Cap,636e065bbae6d6e5860db41b,2022-11-11 03:22:51-05:00,Cap,1487,120,PrescreenTrials_rv,PrescreenTrials,b60a3,EXP8a,1,1,1
117,120,,6345b7f49677d36bd07c5a10,EXP8a_JF,0,b60a33fc2983644fe4faec8cb955a22db3467aaa8db95ce81e9953d3762f43e9,2776.583280801773,False,keypress,prescreenRsp_fadfat_rv,668,[],choice-response,Fad,636e065bbae6d6e5860db41b,2022-11-11 03:22:51-05:00,Fat,1832,121,PrescreenTrials_rv,PrescreenTrials,b60a3,EXP8a,0,0,1
118,121,,6345b7f49677d36bd07c5a10,EXP8a_JF,0,b60a33fc2983644fe4faec8cb955a22db3467aaa8db95ce81e9953d3762f43e9,2776.583280801773,False,keypress,prescreenRsp_bagback_rv,724,[],choice-response,Back,636e065bbae6d6e5860db41b,2022-11-11 03:22:51-05:00,Back,1678,122,PrescreenTrials_rv,PrescreenTrials,b60a3,EXP8a,1,1,1
119,122,,6345b7f49677d36bd07c5a10,EXP8a_JF,0,b60a33fc2983644fe4faec8cb955a22db3467aaa8db95ce81e9953d3762f43e9,2776.583280801773,False,keypress,prescreenRsp_bagback_rv,1097,[],choice-response,Bag,636e065bbae6d6e5860db41b,2022-11-11 03:22:51-05:00,Bag,2203,123,PrescreenTrials_rv,PrescreenTrials,b60a3,EXP8a,1,0,8
120,697,,6345b7f49677d36bd07c5a10,EXP8a_FJ,0,18abf9457c4327994b84f4fcbd4600130c1de1d335ceb84dd4a71829ca7ba08d,3280.831999063492,False,keypress,prescreenRsp_bagback,6318,[],choice-response,Back,636e065bbae6d6e5860db41b,2022-11-11 03:22:51-05:00,Back,7248,4,PrescreenTrials,PrescreenTrials,18abf,EXP8a,1,1,1
121,698,,6345b7f49677d36bd07c5a10,EXP8a_FJ,0,18abf9457c4327994b84f4fcbd4600130c1de1d335ceb84dd4a71829ca7ba08d,3280.831999063492,False,keypress,prescreenRsp_fadfat,1395,[],choice-response,Fat,636e065bbae6d6e5860db41b,2022-11-11 03:22:51-05:00,Fat,2438,5,PrescreenTrials,PrescreenTrials,18abf,EXP8a,1,1,1
122,699,,6345b7f49677d36bd07c5a10,EXP8a_FJ,0,18abf9457c4327994b84f4fcbd4600130c1de1d335ceb84dd4a71829ca7ba08d,3280.831999063492,False,keypress,prescreenRsp_laglack,1806,[],choice-response,Lag,636e065bbae6d6e5860db41b,2022-11-11 03:22:51-05:00,Lag,2896,6,PrescreenTrials,PrescreenTrials,18abf,EXP8a,1,0,8
123,700,,6345b7f49677d36bd07c5a10,EXP8a_FJ,0,18abf9457c4327994b84f4fcbd4600130c1de1d335ceb84dd4a71829ca7ba08d,3280.831999063492,False,keypress,prescreenRsp_beadbeat,3104,[],choice-response,Bead,636e065bbae6d6e5860db41b,2022-11-11 03:22:51-05:00,Bead,4229,7,PrescreenTrials,PrescreenTrials,18abf,EXP8a,1,0,8
124,701,,6345b7f49677d36bd07c5a10,EXP8a_FJ,0,18abf9457c4327994b84f4fcbd4600130c1de1d335ceb84dd4a71829ca7ba08d,3280.831999063492,False,keypress,prescreenRsp_lablap,2020,[],choice-response,Lab,636e065bbae6d6e5860db41b,2022-11-11 03:22:51-05:00,Lab,3106,8,PrescreenTrials,PrescreenTrials,18abf,EXP8a,1,0,8
125,702,,6345b7f49677d36bd07c5a10,EXP8a_FJ,0,18abf9457c4327994b84f4fcbd4600130c1de1d335ceb84dd4a71829ca7ba08d,3280.831999063492,False,keypress,prescreenRsp_laglack,1729,[],choice-response,Lack,636e065bbae6d6e5860db41b,2022-11-11 03:22:51-05:00,Lack,2566,9,PrescreenTrials,PrescreenTrials,18abf,EXP8a,1,1,1
126,703,,6345b7f49677d36bd07c5a10,EXP8a_FJ,0,18abf9457c4327994b84f4fcbd4600130c1de1d335ceb84dd4a71829ca7ba08d,3280.831999063492,False,keypress,prescreenRsp_fadfat,1179,[],choice-response,Fad,636e065bbae6d6e5860db41b,2022-11-11 03:22:51-05:00,Fad,2468,10,PrescreenTrials,PrescreenTrials,18abf,EXP8a,1,0,8
127,704,,6345b7f49677d36bd07c5a10,EXP8a_FJ,0,18abf9457c4327994b84f4fcbd4600130c1de1d335ceb84dd4a71829ca7ba08d,3280.831999063492,False,keypress,prescreenRsp_cabcap,1609,[],choice-response,Cap,636e065bbae6d6e5860db41b,2022-11-11 03:22:51-05:00,Cap,2479,11,PrescreenTrials,PrescreenTrials,18abf,EXP8a,1,1,1
128,705,,6345b7f49677d36bd07c5a10,EXP8a_FJ,0,18abf9457c4327994b84f4fcbd4600130c1de1d335ceb84dd4a71829ca7ba08d,3280.831999063492,False,keypress,prescreenRsp_bagback,1329,[],choice-response,Bag,636e065bbae6d6e5860db41b,2022-11-11 03:22:51-05:00,Bag,2354,12,PrescreenTrials,PrescreenTrials,18abf,EXP8a,1,0,8
129,706,,6345b7f49677d36bd07c5a10,EXP8a_FJ,0,18abf9457c4327994b84f4fcbd4600130c1de1d335ceb84dd4a71829ca7ba08d,3280.831999063492,False,keypress,prescreenRsp_beadbeat,2900,[],choice-response,Beat,636e065bbae6d6e5860db41b,2022-11-11 03:22:51-05:00,Beat,3748,13,PrescreenTrials,PrescreenTrials,18abf,EXP8a,1,1,1
130,707,,6345b7f49677d36bd07c5a10,EXP8a_FJ,0,18abf9457c4327994b84f4fcbd4600130c1de1d335ceb84dd4a71829ca7ba08d,3280.831999063492,False,keypress,prescreenRsp_lablap,1272,[],choice-response,Lap,636e065bbae6d6e5860db41b,2022-11-11 03:22:51-05:00,Lap,2068,14,PrescreenTrials,PrescreenTrials,18abf,EXP8a,1,1,1
131,708,,6345b7f49677d36bd07c5a10,EXP8a_FJ,0,18abf9457c4327994b84f4fcbd4600130c1de1d335ceb84dd4a71829ca7ba08d,3280.831999063492,False,keypress,prescreenRsp_cabcap,1758,[],choice-response,Cab,636e065bbae6d6e5860db41b,2022-11-11 03:22:51-05:00,Cab,2772,15,PrescreenTrials,PrescreenTrials,18abf,EXP8a,1,0,8
132,709,,6345b7f49677d36bd07c5a10,EXP8a_FJ,0,18abf9457c4327994b84f4fcbd4600130c1de1d335ceb84dd4a71829ca7ba08d,3280.831999063492,False,keypress,prescreenRsp_laglack,1643,[],choice-response,Lack,636e065bbae6d6e5860db41b,2022-11-11 03:22:51-05:00,Lack,2534,16,PrescreenTrials,PrescreenTrials,18abf,EXP8a,1,1,1
133,710,,6345b7f49677d36bd07c5a10,EXP8a_FJ,0,18abf9457c4327994b84f4fcbd4600130c1de1d335ceb84dd4a71829ca7ba08d,3280.831999063492,False,keypress,prescreenRsp_beadbeat,1387,[],choice-response,Bead,636e065bbae6d6e5860db41b,2022-11-11 03:22:51-05:00,Bead,2441,17,PrescreenTrials,PrescreenTrials,18abf,EXP8a,1,0,8
134,711,,6345b7f49677d36bd07c5a10,EXP8a_FJ,0,18abf9457c4327994b84f4fcbd4600130c1de1d335ceb84dd4a71829ca7ba08d,3280.831999063492,False,keypress,prescreenRsp_cabcap,1644,[],choice-response,Cap,636e065bbae6d6e5860db41b,2022-11-11 03:22:51-05:00,Cap,2454,18,PrescreenTrials,PrescreenTrials,18abf,EXP8a,1,1,1
135,712,,6345b7f49677d36bd07c5a10,EXP8a_FJ,0,18abf9457c4327994b84f4fcbd4600130c1de1d335ceb84dd4a71829ca7ba08d,3280.831999063492,False,keypress,prescreenRsp_bagback,1928,[],choice-response,Bag,636e065bbae6d6e5860db41b,2022-11-11 03:22:51-05:00,Bag,2926,19,PrescreenTrials,PrescreenTrials,18abf,EXP8a,1,0,8
136,713,,6345b7f49677d36bd07c5a10,EXP8a_FJ,0,18abf9457c4327994b84f4fcbd4600130c1de1d335ceb84dd4a71829ca7ba08d,3280.831999063492,False,keypress,prescreenRsp_cabcap,1861,[],choice-response,Cab,636e065bbae6d6e5860db41b,2022-11-11 03:22:51-05:00,Cab,2983,20,PrescreenTrials,PrescreenTrials,18abf,EXP8a,1,0,8
137,714,,6345b7f49677d36bd07c5a10,EXP8a_FJ,0,18abf9457c4327994b84f4fcbd4600130c1de1d335ceb84dd4a71829ca7ba08d,3280.831999063492,False,keypress,prescreenRsp_lablap,1640,[],choice-response,Lab,636e065bbae6d6e5860db41b,2022-11-11 03:22:51-05:00,Lab,2668,21,PrescreenTrials,PrescreenTrials,18abf,EXP8a,1,0,8
138,715,,6345b7f49677d36bd07c5a10,EXP8a_FJ,0,18abf9457c4327994b84f4fcbd4600130c1de1d335ceb84dd4a71829ca7ba08d,3280.831999063492,False,keypress,prescreenRsp_lablap,1470,[],choice-response,Lap,636e065bbae6d6e5860db41b,2022-11-11 03:22:51-05:00,Lap,2347,22,PrescreenTrials,PrescreenTrials,18abf,EXP8a,1,1,1
139,716,,6345b7f49677d36bd07c5a10,EXP8a_FJ,0,18abf9457c4327994b84f4fcbd4600130c1de1d335ceb84dd4a71829ca7ba08d,3280.831999063492,False,keypress,prescreenRsp_bagback,2105,[],choice-response,Back,636e065bbae6d6e5860db41b,2022-11-11 03:22:51-05:00,Back,2964,23,PrescreenTrials,PrescreenTrials,18abf,EXP8a,1,1,1
140,717,,6345b7f49677d36bd07c5a10,EXP8a_FJ,0,18abf9457c4327994b84f4fcbd4600130c1de1d335ceb84dd4a71829ca7ba08d,3280.831999063492,False,keypress,prescreenRsp_laglack,7194,[],choice-response,Lag,636e065bbae6d6e5860db41b,2022-11-11 03:22:51-05:00,Lag,8398,24,PrescreenTrials,PrescreenTrials,18abf,EXP8a,1,0,8
141,718,,6345b7f49677d36bd07c5a10,EXP8a_FJ,0,18abf9457c4327994b84f4fcbd4600130c1de1d335ceb84dd4a71829ca7ba08d,3280.831999063492,False,keypress,prescreenRsp_fadfat,2712,[],choice-response,Fad,636e065bbae6d6e5860db41b,2022-11-11 03:22:51-05:00,Fat,3779,25,PrescreenTrials,PrescreenTrials,18abf,EXP8a,0,0,1
142,719,,6345b7f49677d36bd07c5a10,EXP8a_FJ,0,18abf9457c4327994b84f4fcbd4600130c1de1d335ceb84dd4a71829ca7ba08d,3280.831999063492,False,keypress,prescreenRsp_fadfat,1086,[],choice-response,Fad,636e065bbae6d6e5860db41b,2022-11-11 03:22:51-05:00,Fad,2294,26,PrescreenTrials,PrescreenTrials,18abf,EXP8a,1,0,8
143,720,,6345b7f49677d36bd07c5a10,EXP8a_FJ,0,18abf9457c4327994b84f4fcbd4600130c1de1d335ceb84dd4a71829ca7ba08d,3280.831999063492,False,keypress,prescreenRsp_beadbeat,1628,[],choice-response,Beat,636e065bbae6d6e5860db41b,2022-11-11 03:22:51-05:00,Beat,2527,27,PrescreenTrials,PrescreenTrials,18abf,EXP8a,1,1,1
144,721,,6345b7f49677d36bd07c5a10,EXP8a_FJ,0,18abf9457c4327994b84f4fcbd4600130c1de1d335ceb84dd4a71829ca7ba08d,3280.831999063492,False,keypress,prescreenRsp_beadbeat,1363,[],choice-response,Bead,636e065bbae6d6e5860db41b,2022-11-11 03:22:51-05:00,Bead,2489,28,PrescreenTrials,PrescreenTrials,18abf,EXP8a,1,0,8
145,722,,6345b7f49677d36bd07c5a10,EXP8a_FJ,0,18abf9457c4327994b84f4fcbd4600130c1de1d335ceb84dd4a71829ca7ba08d,3280.831999063492,False,keypress,prescreenRsp_fadfat,1536,[],choice-response,Fad,636e065bbae6d6e5860db41b,2022-11-11 03:22:51-05:00,Fat,2612,29,PrescreenTrials,PrescreenTrials,18abf,EXP8a,0,0,1
146,723,,6345b7f49677d36bd07c5a10,EXP8a_FJ,0,18abf9457c4327994b84f4fcbd4600130c1de1d335ceb84dd4a71829ca7ba08d,3280.831999063492,False,keypress,prescreenRsp_lablap,1212,[],choice-response,Lab,636e065bbae6d6e5860db41b,2022-11-11 03:22:51-05:00,Lab,2290,30,PrescreenTrials,PrescreenTrials,18abf,EXP8a,1,0,8
147,724,,6345b7f49677d36bd07c5a10,EXP8a_FJ,0,18abf9457c4327994b84f4fcbd4600130c1de1d335ceb84dd4a71829ca7ba08d,3280.831999063492,False,keypress,prescreenRsp_fadfat,1127,[],choice-response,Fad,636e065bbae6d6e5860db41b,2022-11-11 03:22:51-05:00,Fad,2328,31,PrescreenTrials,PrescreenTrials,18abf,EXP8a,1,0,8
148,725,,6345b7f49677d36bd07c5a10,EXP8a_FJ,0,18abf9457c4327994b84f4fcbd4600130c1de1d335ceb84dd4a71829ca7ba08d,3280.831999063492,False,keypress,prescreenRsp_cabcap,7291,[],choice-response,Cab,636e065bbae6d6e5860db41b,2022-11-11 03:22:51-05:00,Cab,8454,32,PrescreenTrials,PrescreenTrials,18abf,EXP8a,1,0,8
149,726,,6345b7f49677d36bd07c5a10,EXP8a_FJ,0,18abf9457c4327994b84f4fcbd4600130c1de1d335ceb84dd4a71829ca7ba08d,3280.831999063492,False,keypress,prescreenRsp_laglack,1883,[],choice-response,Lag,636e065bbae6d6e5860db41b,2022-11-11 03:22:51-05:00,Lag,2961,33,PrescreenTrials,PrescreenTrials,18abf,EXP8a,1,0,8
150,727,,6345b7f49677d36bd07c5a10,EXP8a_FJ,0,18abf9457c4327994b84f4fcbd4600130c1de1d335ceb84dd4a71829ca7ba08d,3280.831999063492,False,keypress,prescreenRsp_bagback,1224,[],choice-response,Bag,636e065bbae6d6e5860db41b,2022-11-11 03:22:51-05:00,Bag,2206,34,PrescreenTrials,PrescreenTrials,18abf,EXP8a,1,0,8
151,728,,6345b7f49677d36bd07c5a10,EXP8a_FJ,0,18abf9457c4327994b84f4fcbd4600130c1de1d335ceb84dd4a71829ca7ba08d,3280.831999063492,False,keypress,prescreenRsp_bagback,1071,[],choice-response,Back,636e065bbae6d6e5860db41b,2022-11-11 03:22:51-05:00,Back,1864,35,PrescreenTrials,PrescreenTrials,18abf,EXP8a,1,1,1
152,729,,6345b7f49677d36bd07c5a10,EXP8a_FJ,0,18abf9457c4327994b84f4fcbd4600130c1de1d335ceb84dd4a71829ca7ba08d,3280.831999063492,False,keypress,prescreenRsp_laglack,1268,[],choice-response,Lack,636e065bbae6d6e5860db41b,2022-11-11 03:22:51-05:00,Lack,2173,36,PrescreenTrials,PrescreenTrials,18abf,EXP8a,1,1,1
153,730,,6345b7f49677d36bd07c5a10,EXP8a_FJ,0,18abf9457c4327994b84f4fcbd4600130c1de1d335ceb84dd4a71829ca7ba08d,3280.831999063492,False,keypress,prescreenRsp_beadbeat,2717,[],choice-response,Beat,636e065bbae6d6e5860db41b,2022-11-11 03:22:51-05:00,Beat,3690,37,PrescreenTrials,PrescreenTrials,18abf,EXP8a,1,1,1
154,731,,6345b7f49677d36bd07c5a10,EXP8a_FJ,0,18abf9457c4327994b84f4fcbd4600130c1de1d335ceb84dd4a71829ca7ba08d,3280.831999063492,False,keypress,prescreenRsp_lablap,1405,[],choice-response,Lap,636e065bbae6d6e5860db41b,2022-11-11 03:22:51-05:00,Lap,2300,38,PrescreenTrials,PrescreenTrials,18abf,EXP8a,1,1,1
155,732,,6345b7f49677d36bd07c5a10,EXP8a_FJ,0,18abf9457c4327994b84f4fcbd4600130c1de1d335ceb84dd4a71829ca7ba08d,3280.831999063492,False,keypress,prescreenRsp_cabcap,1253,[],choice-response,Cap,636e065bbae6d6e5860db41b,2022-11-11 03:22:51-05:00,Cap,2204,39,PrescreenTrials,PrescreenTrials,18abf,EXP8a,1,1,1
156,733,,6345b7f49677d36bd07c5a10,EXP8a_FJ,0,18abf9457c4327994b84f4fcbd4600130c1de1d335ceb84dd4a71829ca7ba08d,3280.831999063492,False,keypress,prescreenRsp_cabcap,1274,[],choice-response,Cap,636e065bbae6d6e5860db41b,2022-11-11 03:22:51-05:00,Cap,2228,40,PrescreenTrials,PrescreenTrials,18abf,EXP8a,1,1,1
157,734,,6345b7f49677d36bd07c5a10,EXP8a_FJ,0,18abf9457c4327994b84f4fcbd4600130c1de1d335ceb84dd4a71829ca7ba08d,3280.831999063492,False,keypress,prescreenRsp_beadbeat,1709,[],choice-response,Bead,636e065bbae6d6e5860db41b,2022-11-11 03:22:51-05:00,Bead,2880,41,PrescreenTrials,PrescreenTrials,18abf,EXP8a,1,0,8
158,735,,6345b7f49677d36bd07c5a10,EXP8a_FJ,0,18abf9457c4327994b84f4fcbd4600130c1de1d335ceb84dd4a71829ca7ba08d,3280.831999063492,False,keypress,prescreenRsp_beadbeat,1937,[],choice-response,Beat,636e065bbae6d6e5860db41b,2022-11-11 03:22:51-05:00,Beat,2858,42,PrescreenTrials,PrescreenTrials,18abf,EXP8a,1,1,1
159,736,,6345b7f49677d36bd07c5a10,EXP8a_FJ,0,18abf9457c4327994b84f4fcbd4600130c1de1d335ceb84dd4a71829ca7ba08d,3280.831999063492,False,keypress,prescreenRsp_fadfat,1344,[],choice-response,Fat,636e065bbae6d6e5860db41b,2022-11-11 03:22:51-05:00,Fat,2468,43,PrescreenTrials,PrescreenTrials,18abf,EXP8a,1,1,1
160,737,,6345b7f49677d36bd07c5a10,EXP8a_FJ,0,18abf9457c4327994b84f4fcbd4600130c1de1d335ceb84dd4a71829ca7ba08d,3280.831999063492,False,keypress,prescreenRsp_bagback,1692,[],choice-response,Back,636e065bbae6d6e5860db41b,2022-11-11 03:22:51-05:00,Back,2588,44,PrescreenTrials,PrescreenTrials,18abf,EXP8a,1,1,1
161,738,,6345b7f49677d36bd07c5a10,EXP8a_FJ,0,18abf9457c4327994b84f4fcbd4600130c1de1d335ceb84dd4a71829ca7ba08d,3280.831999063492,False,keypress,prescreenRsp_lablap,2693,[],choice-response,Lap,636e065bbae6d6e5860db41b,2022-11-11 03:22:51-05:00,Lap,3546,45,PrescreenTrials,PrescreenTrials,18abf,EXP8a,1,1,1
162,739,,6345b7f49677d36bd07c5a10,EXP8a_FJ,0,18abf9457c4327994b84f4fcbd4600130c1de1d335ceb84dd4a71829ca7ba08d,3280.831999063492,False,keypress,prescreenRsp_cabcap,1663,[],choice-response,Cab,636e065bbae6d6e5860db41b,2022-11-11 03:22:51-05:00,Cab,2795,46,PrescreenTrials,PrescreenTrials,18abf,EXP8a,1,0,8
163,740,,6345b7f49677d36bd07c5a10,EXP8a_FJ,0,18abf9457c4327994b84f4fcbd4600130c1de1d335ceb84dd4a71829ca7ba08d,3280.831999063492,False,keypress,prescreenRsp_laglack,7562,[],choice-response,Lag,636e065bbae6d6e5860db41b,2022-11-11 03:22:51-05:00,Lag,8732,47,PrescreenTrials,PrescreenTrials,18abf,EXP8a,1,0,8
164,741,,6345b7f49677d36bd07c5a10,EXP8a_FJ,0,18abf9457c4327994b84f4fcbd4600130c1de1d335ceb84dd4a71829ca7ba08d,3280.831999063492,False,keypress,prescreenRsp_bagback,1121,[],choice-response,Bag,636e065bbae6d6e5860db41b,2022-11-11 03:22:51-05:00,Bag,2169,48,PrescreenTrials,PrescreenTrials,18abf,EXP8a,1,0,8
165,742,,6345b7f49677d36bd07c5a10,EXP8a_FJ,0,18abf9457c4327994b84f4fcbd4600130c1de1d335ceb84dd4a71829ca7ba08d,3280.831999063492,False,keypress,prescreenRsp_fadfat,1186,[],choice-response,Fad,636e065bbae6d6e5860db41b,2022-11-11 03:22:51-05:00,Fad,2511,49,PrescreenTrials,PrescreenTrials,18abf,EXP8a,1,0,8
166,743,,6345b7f49677d36bd07c5a10,EXP8a_FJ,0,18abf9457c4327994b84f4fcbd4600130c1de1d335ceb84dd4a71829ca7ba08d,3280.831999063492,False,keypress,prescreenRsp_lablap,1143,[],choice-response,Lap,636e065bbae6d6e5860db41b,2022-11-11 03:22:51-05:00,Lab,2212,50,PrescreenTrials,PrescreenTrials,18abf,EXP8a,0,1,8
167,744,,6345b7f49677d36bd07c5a10,EXP8a_FJ,0,18abf9457c4327994b84f4fcbd4600130c1de1d335ceb84dd4a71829ca7ba08d,3280.831999063492,False,keypress,prescreenRsp_laglack,1155,[],choice-response,Lack,636e065bbae6d6e5860db41b,2022-11-11 03:22:51-05:00,Lack,2057,51,PrescreenTrials,PrescreenTrials,18abf,EXP8a,1,1,1
168,745,,6345b7f49677d36bd07c5a10,EXP8a_FJ,0,18abf9457c4327994b84f4fcbd4600130c1de1d335ceb84dd4a71829ca7ba08d,3280.831999063492,False,keypress,prescreenRsp_fadfat,1425,[],choice-response,Fad,636e065bbae6d6e5860db41b,2022-11-11 03:22:51-05:00,Fad,2770,52,PrescreenTrials,PrescreenTrials,18abf,EXP8a,1,0,8
169,746,,6345b7f49677d36bd07c5a10,EXP8a_FJ,0,18abf9457c4327994b84f4fcbd4600130c1de1d335ceb84dd4a71829ca7ba08d,3280.831999063492,False,keypress,prescreenRsp_beadbeat,976,[],choice-response,Bead,636e065bbae6d6e5860db41b,2022-11-11 03:22:51-05:00,Bead,2116,53,PrescreenTrials,PrescreenTrials,18abf,EXP8a,1,0,8
170,747,,6345b7f49677d36bd07c5a10,EXP8a_FJ,0,18abf9457c4327994b84f4fcbd4600130c1de1d335ceb84dd4a71829ca7ba08d,3280.831999063492,False,keypress,prescreenRsp_bagback,857,[],choice-response,Back,636e065bbae6d6e5860db41b,2022-11-11 03:22:51-05:00,Back,1766,54,PrescreenTrials,PrescreenTrials,18abf,EXP8a,1,1,1
171,748,,6345b7f49677d36bd07c5a10,EXP8a_FJ,0,18abf9457c4327994b84f4fcbd4600130c1de1d335ceb84dd4a71829ca7ba08d,3280.831999063492,False,keypress,prescreenRsp_fadfat,1544,[],choice-response,Fad,636e065bbae6d6e5860db41b,2022-11-11 03:22:51-05:00,Fat,3362,55,PrescreenTrials,PrescreenTrials,18abf,EXP8a,0,0,1
172,749,,6345b7f49677d36bd07c5a10,EXP8a_FJ,0,18abf9457c4327994b84f4fcbd4600130c1de1d335ceb84dd4a71829ca7ba08d,3280.831999063492,False,keypress,prescreenRsp_lablap,1649,[],choice-response,Lab,636e065bbae6d6e5860db41b,2022-11-11 03:22:51-05:00,Lab,2776,56,PrescreenTrials,PrescreenTrials,18abf,EXP8a,1,0,8
173,750,,6345b7f49677d36bd07c5a10,EXP8a_FJ,0,18abf9457c4327994b84f4fcbd4600130c1de1d335ceb84dd4a71829ca7ba08d,3280.831999063492,False,keypress,prescreenRsp_beadbeat,2230,[],choice-response,Beat,636e065bbae6d6e5860db41b,2022-11-11 03:22:51-05:00,Beat,3196,57,PrescreenTrials,PrescreenTrials,18abf,EXP8a,1,1,1
174,751,,6345b7f49677d36bd07c5a10,EXP8a_FJ,0,18abf9457c4327994b84f4fcbd4600130c1de1d335ceb84dd4a71829ca7ba08d,3280.831999063492,False,keypress,prescreenRsp_cabcap,1794,[],choice-response,Cab,636e065bbae6d6e5860db41b,2022-11-11 03:22:51-05:00,Cab,2963,58,PrescreenTrials,PrescreenTrials,18abf,EXP8a,1,0,8
175,752,,6345b7f49677d36bd07c5a10,EXP8a_FJ,0,18abf9457c4327994b84f4fcbd4600130c1de1d335ceb84dd4a71829ca7ba08d,3280.831999063492,False,keypress,prescreenRsp_laglack,1622,[],choice-response,Lag,636e065bbae6d6e5860db41b,2022-11-11 03:22:51-05:00,Lag,2727,59,PrescreenTrials,PrescreenTrials,18abf,EXP8a,1,0,8
176,753,,6345b7f49677d36bd07c5a10,EXP8a_FJ,0,18abf9457c4327994b84f4fcbd4600130c1de1d335ceb84dd4a71829ca7ba08d,3280.831999063492,False,keypress,prescreenRsp_bagback,1030,[],choice-response,Bag,636e065bbae6d6e5860db41b,2022-11-11 03:22:51-05:00,Bag,2157,60,PrescreenTrials,PrescreenTrials,18abf,EXP8a,1,0,8
177,754,,6345b7f49677d36bd07c5a10,EXP8a_FJ,0,18abf9457c4327994b84f4fcbd4600130c1de1d335ceb84dd4a71829ca7ba08d,3280.831999063492,False,keypress,prescreenRsp_laglack,3083,[],choice-response,Lack,636e065bbae6d6e5860db41b,2022-11-11 03:22:51-05:00,Lack,3947,61,PrescreenTrials,PrescreenTrials,18abf,EXP8a,1,1,1
178,755,,6345b7f49677d36bd07c5a10,EXP8a_FJ,0,18abf9457c4327994b84f4fcbd4600130c1de1d335ceb84dd4a71829ca7ba08d,3280.831999063492,False,keypress,prescreenRsp_cabcap,1211,[],choice-response,Cap,636e065bbae6d6e5860db41b,2022-11-11 03:22:51-05:00,Cap,2096,62,PrescreenTrials,PrescreenTrials,18abf,EXP8a,1,1,1
179,756,,6345b7f49677d36bd07c5a10,EXP8a_FJ,0,18abf9457c4327994b84f4fcbd4600130c1de1d335ceb84dd4a71829ca7ba08d,3280.831999063492,False,keypress,prescreenRsp_lablap,2655,[],choice-response,Lab,636e065bbae6d6e5860db41b,2022-11-11 03:22:51-05:00,Lap,3543,63,PrescreenTrials,PrescreenTrials,18abf,EXP8a,0,0,1
180,757,,6345b7f49677d36bd07c5a10,EXP8a_FJ,0,18abf9457c4327994b84f4fcbd4600130c1de1d335ceb84dd4a71829ca7ba08d,3280.831999063492,False,keypress,prescreenRsp_laglack,991,[],choice-response,Lack,636e065bbae6d6e5860db41b,2022-11-11 03:22:51-05:00,Lack,1943,64,PrescreenTrials,PrescreenTrials,18abf,EXP8a,1,1,1
181,758,,6345b7f49677d36bd07c5a10,EXP8a_FJ,0,18abf9457c4327994b84f4fcbd4600130c1de1d335ceb84dd4a71829ca7ba08d,3280.831999063492,False,keypress,prescreenRsp_bagback,1538,[],choice-response,Bag,636e065bbae6d6e5860db41b,2022-11-11 03:22:51-05:00,Bag,2596,65,PrescreenTrials,PrescreenTrials,18abf,EXP8a,1,0,8
182,759,,6345b7f49677d36bd07c5a10,EXP8a_FJ,0,18abf9457c4327994b84f4fcbd4600130c1de1d335ceb84dd4a71829ca7ba08d,3280.831999063492,False,keypress,prescreenRsp_bagback,765,[],choice-response,Back,636e065bbae6d6e5860db41b,2022-11-11 03:22:51-05:00,Back,1676,66,PrescreenTrials,PrescreenTrials,18abf,EXP8a,1,1,1
183,760,,6345b7f49677d36bd07c5a10,EXP8a_FJ,0,18abf9457c4327994b84f4fcbd4600130c1de1d335ceb84dd4a71829ca7ba08d,3280.831999063492,False,keypress,prescreenRsp_lablap,1423,[],choice-response,Lab,636e065bbae6d6e5860db41b,2022-11-11 03:22:51-05:00,Lap,2282,67,PrescreenTrials,PrescreenTrials,18abf,EXP8a,0,0,1
184,761,,6345b7f49677d36bd07c5a10,EXP8a_FJ,0,18abf9457c4327994b84f4fcbd4600130c1de1d335ceb84dd4a71829ca7ba08d,3280.831999063492,False,keypress,prescreenRsp_beadbeat,1252,[],choice-response,Bead,636e065bbae6d6e5860db41b,2022-11-11 03:22:51-05:00,Bead,2397,68,PrescreenTrials,PrescreenTrials,18abf,EXP8a,1,0,8
185,762,,6345b7f49677d36bd07c5a10,EXP8a_FJ,0,18abf9457c4327994b84f4fcbd4600130c1de1d335ceb84dd4a71829ca7ba08d,3280.831999063492,False,keypress,prescreenRsp_fadfat,760,[],choice-response,Fad,636e065bbae6d6e5860db41b,2022-11-11 03:22:51-05:00,Fad,2100,69,PrescreenTrials,PrescreenTrials,18abf,EXP8a,1,0,8
186,763,,6345b7f49677d36bd07c5a10,EXP8a_FJ,0,18abf9457c4327994b84f4fcbd4600130c1de1d335ceb84dd4a71829ca7ba08d,3280.831999063492,False,keypress,prescreenRsp_beadbeat,946,[],choice-response,Beat,636e065bbae6d6e5860db41b,2022-11-11 03:22:51-05:00,Beat,1930,70,PrescreenTrials,PrescreenTrials,18abf,EXP8a,1,1,1
187,764,,6345b7f49677d36bd07c5a10,EXP8a_FJ,0,18abf9457c4327994b84f4fcbd4600130c1de1d335ceb84dd4a71829ca7ba08d,3280.831999063492,False,keypress,prescreenRsp_cabcap,1813,[],choice-response,Cab,636e065bbae6d6e5860db41b,2022-11-11 03:22:51-05:00,Cab,2958,71,PrescreenTrials,PrescreenTrials,18abf,EXP8a,1,0,8
188,765,,6345b7f49677d36bd07c5a10,EXP8a_FJ,0,18abf9457c4327994b84f4fcbd4600130c1de1d335ceb84dd4a71829ca7ba08d,3280.831999063492,False,keypress,prescreenRsp_fadfat,1339,[],choice-response,Fat,636e065bbae6d6e5860db41b,2022-11-11 03:22:51-05:00,Fat,2394,72,PrescreenTrials,PrescreenTrials,18abf,EXP8a,1,1,1
189,766,,6345b7f49677d36bd07c5a10,EXP8a_FJ,0,18abf9457c4327994b84f4fcbd4600130c1de1d335ceb84dd4a71829ca7ba08d,3280.831999063492,False,keypress,prescreenRsp_lablap,1660,[],choice-response,Lab,636e065bbae6d6e5860db41b,2022-11-11 03:22:51-05:00,Lab,2772,73,PrescreenTrials,PrescreenTrials,18abf,EXP8a,1,0,8
190,767,,6345b7f49677d36bd07c5a10,EXP8a_FJ,0,18abf9457c4327994b84f4fcbd4600130c1de1d335ceb84dd4a71829ca7ba08d,3280.831999063492,False,keypress,prescreenRsp_cabcap,1452,[],choice-response,Cap,636e065bbae6d6e5860db41b,2022-11-11 03:22:51-05:00,Cap,2409,74,PrescreenTrials,PrescreenTrials,18abf,EXP8a,1,1,1
191,768,,6345b7f49677d36bd07c5a10,EXP8a_FJ,0,18abf9457c4327994b84f4fcbd4600130c1de1d335ceb84dd4a71829ca7ba08d,3280.831999063492,False,keypress,prescreenRsp_laglack,3339,[],choice-response,Lag,636e065bbae6d6e5860db41b,2022-11-11 03:22:51-05:00,Lag,4526,75,PrescreenTrials,PrescreenTrials,18abf,EXP8a,1,0,8
192,769,,6345b7f49677d36bd07c5a10,EXP8a_FJ,0,18abf9457c4327994b84f4fcbd4600130c1de1d335ceb84dd4a71829ca7ba08d,3280.831999063492,False,keypress,prescreenRsp_beadbeat,1216,[],choice-response,Bead,636e065bbae6d6e5860db41b,2022-11-11 03:22:51-05:00,Bead,2400,76,PrescreenTrials,PrescreenTrials,18abf,EXP8a,1,0,8
193,770,,6345b7f49677d36bd07c5a10,EXP8a_FJ,0,18abf9457c4327994b84f4fcbd4600130c1de1d335ceb84dd4a71829ca7ba08d,3280.831999063492,False,keypress,prescreenRsp_bagback,1042,[],choice-response,Back,636e065bbae6d6e5860db41b,2022-11-11 03:22:51-05:00,Back,1965,77,PrescreenTrials,PrescreenTrials,18abf,EXP8a,1,1,1
194,771,,6345b7f49677d36bd07c5a10,EXP8a_FJ,0,18abf9457c4327994b84f4fcbd4600130c1de1d335ceb84dd4a71829ca7ba08d,3280.831999063492,False,keypress,prescreenRsp_cabcap,1766,[],choice-response,Cap,636e065bbae6d6e5860db41b,2022-11-11 03:22:51-05:00,Cap,2686,78,PrescreenTrials,PrescreenTrials,18abf,EXP8a,1,1,1
195,772,,6345b7f49677d36bd07c5a10,EXP8a_FJ,0,18abf9457c4327994b84f4fcbd4600130c1de1d335ceb84dd4a71829ca7ba08d,3280.831999063492,False,keypress,prescreenRsp_beadbeat,1379,[],choice-response,Bead,636e065bbae6d6e5860db41b,2022-11-11 03:22:51-05:00,Beat,2248,79,PrescreenTrials,PrescreenTrials,18abf,EXP8a,0,0,1
196,773,,6345b7f49677d36bd07c5a10,EXP8a_FJ,0,18abf9457c4327994b84f4fcbd4600130c1de1d335ceb84dd4a71829ca7ba08d,3280.831999063492,False,keypress,prescreenRsp_fadfat,3316,[],choice-response,Fad,636e065bbae6d6e5860db41b,2022-11-11 03:22:51-05:00,Fat,4428,80,PrescreenTrials,PrescreenTrials,18abf,EXP8a,0,0,1
197,774,,6345b7f49677d36bd07c5a10,EXP8a_FJ,0,18abf9457c4327994b84f4fcbd4600130c1de1d335ceb84dd4a71829ca7ba08d,3280.831999063492,False,keypress,prescreenRsp_bagback,1735,[],choice-response,Bag,636e065bbae6d6e5860db41b,2022-11-11 03:22:51-05:00,Bag,2867,81,PrescreenTrials,PrescreenTrials,18abf,EXP8a,1,0,8
198,775,,6345b7f49677d36bd07c5a10,EXP8a_FJ,0,18abf9457c4327994b84f4fcbd4600130c1de1d335ceb84dd4a71829ca7ba08d,3280.831999063492,False,keypress,prescreenRsp_laglack,1472,[],choice-response,Lack,636e065bbae6d6e5860db41b,2022-11-11 03:22:51-05:00,Lack,2437,82,PrescreenTrials,PrescreenTrials,18abf,EXP8a,1,1,1
199,776,,6345b7f49677d36bd07c5a10,EXP8a_FJ,0,18abf9457c4327994b84f4fcbd4600130c1de1d335ceb84dd4a71829ca7ba08d,3280.831999063492,False,keypress,prescreenRsp_laglack,2469,[],choice-response,Lag,636e065bbae6d6e5860db41b,2022-11-11 03:22:51-05:00,Lag,3624,83,PrescreenTrials,PrescreenTrials,18abf,EXP8a,1,0,8
200,777,,6345b7f49677d36bd07c5a10,EXP8a_FJ,0,18abf9457c4327994b84f4fcbd4600130c1de1d335ceb84dd4a71829ca7ba08d,3280.831999063492,False,keypress,prescreenRsp_lablap,1158,[],choice-response,Lab,636e065bbae6d6e5860db41b,2022-11-11 03:22:51-05:00,Lap,2108,84,PrescreenTrials,PrescreenTrials,18abf,EXP8a,0,0,1
201,778,,6345b7f49677d36bd07c5a10,EXP8a_FJ,0,18abf9457c4327994b84f4fcbd4600130c1de1d335ceb84dd4a71829ca7ba08d,3280.831999063492,False,keypress,prescreenRsp_fadfat,943,[],choice-response,Fad,636e065bbae6d6e5860db41b,2022-11-11 03:22:51-05:00,Fad,2259,85,PrescreenTrials,PrescreenTrials,18abf,EXP8a,1,0,8
202,779,,6345b7f49677d36bd07c5a10,EXP8a_FJ,0,18abf9457c4327994b84f4fcbd4600130c1de1d335ceb84dd4a71829ca7ba08d,3280.831999063492,False,keypress,prescreenRsp_lablap,1145,[],choice-response,Lab,636e065bbae6d6e5860db41b,2022-11-11 03:22:51-05:00,Lab,2300,86,PrescreenTrials,PrescreenTrials,18abf,EXP8a,1,0,8
203,780,,6345b7f49677d36bd07c5a10,EXP8a_FJ,0,18abf9457c4327994b84f4fcbd4600130c1de1d335ceb84dd4a71829ca7ba08d,3280.831999063492,False,keypress,prescreenRsp_cabcap,1365,[],choice-response,Cab,636e065bbae6d6e5860db41b,2022-11-11 03:22:51-05:00,Cab,2408,87,PrescreenTrials,PrescreenTrials,18abf,EXP8a,1,0,8
204,781,,6345b7f49677d36bd07c5a10,EXP8a_FJ,0,18abf9457c4327994b84f4fcbd4600130c1de1d335ceb84dd4a71829ca7ba08d,3280.831999063492,False,keypress,prescreenRsp_beadbeat,786,[],choice-response,Bead,636e065bbae6d6e5860db41b,2022-11-11 03:22:51-05:00,Bead,1917,88,PrescreenTrials,PrescreenTrials,18abf,EXP8a,1,0,8
205,782,,6345b7f49677d36bd07c5a10,EXP8a_FJ,0,18abf9457c4327994b84f4fcbd4600130c1de1d335ceb84dd4a71829ca7ba08d,3280.831999063492,False,keypress,prescreenRsp_lablap,966,[],choice-response,Lap,636e065bbae6d6e5860db41b,2022-11-11 03:22:51-05:00,Lap,1904,89,PrescreenTrials,PrescreenTrials,18abf,EXP8a,1,1,1
206,783,,6345b7f49677d36bd07c5a10,EXP8a_FJ,0,18abf9457c4327994b84f4fcbd4600130c1de1d335ceb84dd4a71829ca7ba08d,3280.831999063492,False,keypress,prescreenRsp_bagback,1197,[],choice-response,Back,636e065bbae6d6e5860db41b,2022-11-11 03:22:51-05:00,Back,2064,90,PrescreenTrials,PrescreenTrials,18abf,EXP8a,1,1,1
207,784,,6345b7f49677d36bd07c5a10,EXP8a_FJ,0,18abf9457c4327994b84f4fcbd4600130c1de1d335ceb84dd4a71829ca7ba08d,3280.831999063492,False,keypress,prescreenRsp_laglack,822,[],choice-response,Lack,636e065bbae6d6e5860db41b,2022-11-11 03:22:51-05:00,Lack,1784,91,PrescreenTrials,PrescreenTrials,18abf,EXP8a,1,1,1
208,785,,6345b7f49677d36bd07c5a10,EXP8a_FJ,0,18abf9457c4327994b84f4fcbd4600130c1de1d335ceb84dd4a71829ca7ba08d,3280.831999063492,False,keypress,prescreenRsp_lablap,652,[],choice-response,Lab,636e065bbae6d6e5860db41b,2022-11-11 03:22:51-05:00,Lab,1705,92,PrescreenTrials,PrescreenTrials,18abf,EXP8a,1,0,8
209,786,,6345b7f49677d36bd07c5a10,EXP8a_FJ,0,18abf9457c4327994b84f4fcbd4600130c1de1d335ceb84dd4a71829ca7ba08d,3280.831999063492,False,keypress,prescreenRsp_bagback,566,[],choice-response,Bag,636e065bbae6d6e5860db41b,2022-11-11 03:22:51-05:00,Bag,1701,93,PrescreenTrials,PrescreenTrials,18abf,EXP8a,1,0,8
210,787,,6345b7f49677d36bd07c5a10,EXP8a_FJ,0,18abf9457c4327994b84f4fcbd4600130c1de1d335ceb84dd4a71829ca7ba08d,3280.831999063492,False,keypress,prescreenRsp_fadfat,1276,[],choice-response,Fat,636e065bbae6d6e5860db41b,2022-11-11 03:22:51-05:00,Fat,2365,94,PrescreenTrials,PrescreenTrials,18abf,EXP8a,1,1,1
211,788,,6345b7f49677d36bd07c5a10,EXP8a_FJ,0,18abf9457c4327994b84f4fcbd4600130c1de1d335ceb84dd4a71829ca7ba08d,3280.831999063492,False,keypress,prescreenRsp_cabcap,794,[],choice-response,Cap,636e065bbae6d6e5860db41b,2022-11-11 03:22:51-05:00,Cap,1710,95,PrescreenTrials,PrescreenTrials,18abf,EXP8a,1,1,1
212,789,,6345b7f49677d36bd07c5a10,EXP8a_FJ,0,18abf9457c4327994b84f4fcbd4600130c1de1d335ceb84dd4a71829ca7ba08d,3280.831999063492,False,keypress,prescreenRsp_beadbeat,2166,[],choice-response,Beat,636e065bbae6d6e5860db41b,2022-11-11 03:22:51-05:00,Beat,3156,96,PrescreenTrials,PrescreenTrials,18abf,EXP8a,1,1,1
213,790,,6345b7f49677d36bd07c5a10,EXP8a_FJ,0,18abf9457c4327994b84f4fcbd4600130c1de1d335ceb84dd4a71829ca7ba08d,3280.831999063492,False,keypress,prescreenRsp_cabcap,1209,[],choice-response,Cab,636e065bbae6d6e5860db41b,2022-11-11 03:22:51-05:00,Cab,2311,97,PrescreenTrials,PrescreenTrials,18abf,EXP8a,1,0,8
214,791,,6345b7f49677d36bd07c5a10,EXP8a_FJ,0,18abf9457c4327994b84f4fcbd4600130c1de1d335ceb84dd4a71829ca7ba08d,3280.831999063492,False,keypress,prescreenRsp_laglack,742,[],choice-response,Lag,636e065bbae6d6e5860db41b,2022-11-11 03:22:51-05:00,Lag,1798,98,PrescreenTrials,PrescreenTrials,18abf,EXP8a,1,0,8
215,792,,6345b7f49677d36bd07c5a10,EXP8a_FJ,0,18abf9457c4327994b84f4fcbd4600130c1de1d335ceb84dd4a71829ca7ba08d,3280.831999063492,False,keypress,prescreenRsp_fadfat,1094,[],choice-response,Fad,636e065bbae6d6e5860db41b,2022-11-11 03:22:51-05:00,Fad,2414,99,PrescreenTrials,PrescreenTrials,18abf,EXP8a,1,0,8
216,793,,6345b7f49677d36bd07c5a10,EXP8a_FJ,0,18abf9457c4327994b84f4fcbd4600130c1de1d335ceb84dd4a71829ca7ba08d,3280.831999063492,False,keypress,prescreenRsp_lablap,801,[],choice-response,Lab,636e065bbae6d6e5860db41b,2022-11-11 03:22:51-05:00,Lab,1948,100,PrescreenTrials,PrescreenTrials,18abf,EXP8a,1,0,8
217,794,,6345b7f49677d36bd07c5a10,EXP8a_FJ,0,18abf9457c4327994b84f4fcbd4600130c1de1d335ceb84dd4a71829ca7ba08d,3280.831999063492,False,keypress,prescreenRsp_bagback,3238,[],choice-response,Back,636e065bbae6d6e5860db41b,2022-11-11 03:22:51-05:00,Back,4096,101,PrescreenTrials,PrescreenTrials,18abf,EXP8a,1,1,1
218,795,,6345b7f49677d36bd07c5a10,EXP8a_FJ,0,18abf9457c4327994b84f4fcbd4600130c1de1d335ceb84dd4a71829ca7ba08d,3280.831999063492,False,keypress,prescreenRsp_cabcap,1375,[],choice-response,Cap,636e065bbae6d6e5860db41b,2022-11-11 03:22:51-05:00,Cap,2322,102,PrescreenTrials,PrescreenTrials,18abf,EXP8a,1,1,1
219,796,,6345b7f49677d36bd07c5a10,EXP8a_FJ,0,18abf9457c4327994b84f4fcbd4600130c1de1d335ceb84dd4a71829ca7ba08d,3280.831999063492,False,keypress,prescreenRsp_fadfat,743,[],choice-response,Fad,636e065bbae6d6e5860db41b,2022-11-11 03:22:51-05:00,Fad,2062,103,PrescreenTrials,PrescreenTrials,18abf,EXP8a,1,0,8
220,797,,6345b7f49677d36bd07c5a10,EXP8a_FJ,0,18abf9457c4327994b84f4fcbd4600130c1de1d335ceb84dd4a71829ca7ba08d,3280.831999063492,False,keypress,prescreenRsp_laglack,1091,[],choice-response,Lag,636e065bbae6d6e5860db41b,2022-11-11 03:22:51-05:00,Lag,2214,104,PrescreenTrials,PrescreenTrials,18abf,EXP8a,1,0,8
221,798,,6345b7f49677d36bd07c5a10,EXP8a_FJ,0,18abf9457c4327994b84f4fcbd4600130c1de1d335ceb84dd4a71829ca7ba08d,3280.831999063492,False,keypress,prescreenRsp_laglack,870,[],choice-response,Lack,636e065bbae6d6e5860db41b,2022-11-11 03:22:51-05:00,Lack,1791,105,PrescreenTrials,PrescreenTrials,18abf,EXP8a,1,1,1
222,799,,6345b7f49677d36bd07c5a10,EXP8a_FJ,0,18abf9457c4327994b84f4fcbd4600130c1de1d335ceb84dd4a71829ca7ba08d,3280.831999063492,False,keypress,prescreenRsp_cabcap,781,[],choice-response,Cab,636e065bbae6d6e5860db41b,2022-11-11 03:22:51-05:00,Cab,1900,106,PrescreenTrials,PrescreenTrials,18abf,EXP8a,1,0,8
223,800,,6345b7f49677d36bd07c5a10,EXP8a_FJ,0,18abf9457c4327994b84f4fcbd4600130c1de1d335ceb84dd4a71829ca7ba08d,3280.831999063492,False,keypress,prescreenRsp_beadbeat,1910,[],choice-response,Beat,636e065bbae6d6e5860db41b,2022-11-11 03:22:51-05:00,Beat,2910,107,PrescreenTrials,PrescreenTrials,18abf,EXP8a,1,1,1
224,801,,6345b7f49677d36bd07c5a10,EXP8a_FJ,0,18abf9457c4327994b84f4fcbd4600130c1de1d335ceb84dd4a71829ca7ba08d,3280.831999063492,False,keypress,prescreenRsp_fadfat,1037,[],choice-response,Fat,636e065bbae6d6e5860db41b,2022-11-11 03:22:51-05:00,Fat,2172,108,PrescreenTrials,PrescreenTrials,18abf,EXP8a,1,1,1
225,802,,6345b7f49677d36bd07c5a10,EXP8a_FJ,0,18abf9457c4327994b84f4fcbd4600130c1de1d335ceb84dd4a71829ca7ba08d,3280.831999063492,False,keypress,prescreenRsp_beadbeat,831,[],choice-response,Bead,636e065bbae6d6e5860db41b,2022-11-11 03:22:51-05:00,Bead,2019,109,PrescreenTrials,PrescreenTrials,18abf,EXP8a,1,0,8
226,803,,6345b7f49677d36bd07c5a10,EXP8a_FJ,0,18abf9457c4327994b84f4fcbd4600130c1de1d335ceb84dd4a71829ca7ba08d,3280.831999063492,False,keypress,prescreenRsp_lablap,1077,[],choice-response,Lap,636e065bbae6d6e5860db41b,2022-11-11 03:22:51-05:00,Lap,2028,110,PrescreenTrials,PrescreenTrials,18abf,EXP8a,1,1,1
227,804,,6345b7f49677d36bd07c5a10,EXP8a_FJ,0,18abf9457c4327994b84f4fcbd4600130c1de1d335ceb84dd4a71829ca7ba08d,3280.831999063492,False,keypress,prescreenRsp_bagback,1063,[],choice-response,Bag,636e065bbae6d6e5860db41b,2022-11-11 03:22:51-05:00,Bag,2184,111,PrescreenTrials,PrescreenTrials,18abf,EXP8a,1,0,8
228,805,,6345b7f49677d36bd07c5a10,EXP8a_FJ,0,18abf9457c4327994b84f4fcbd4600130c1de1d335ceb84dd4a71829ca7ba08d,3280.831999063492,False,keypress,prescreenRsp_beadbeat,1613,[],choice-response,Beat,636e065bbae6d6e5860db41b,2022-11-11 03:22:51-05:00,Beat,2605,112,PrescreenTrials,PrescreenTrials,18abf,EXP8a,1,1,1
229,806,,6345b7f49677d36bd07c5a10,EXP8a_FJ,0,18abf9457c4327994b84f4fcbd4600130c1de1d335ceb84dd4a71829ca7ba08d,3280.831999063492,False,keypress,prescreenRsp_laglack,984,[],choice-response,Lack,636e065bbae6d6e5860db41b,2022-11-11 03:22:51-05:00,Lack,1951,113,PrescreenTrials,PrescreenTrials,18abf,EXP8a,1,1,1
230,807,,6345b7f49677d36bd07c5a10,EXP8a_FJ,0,18abf9457c4327994b84f4fcbd4600130c1de1d335ceb84dd4a71829ca7ba08d,3280.831999063492,False,keypress,prescreenRsp_cabcap,775,[],choice-response,Cap,636e065bbae6d6e5860db41b,2022-11-11 03:22:51-05:00,Cap,1726,114,PrescreenTrials,PrescreenTrials,18abf,EXP8a,1,1,1
231,808,,6345b7f49677d36bd07c5a10,EXP8a_FJ,0,18abf9457c4327994b84f4fcbd4600130c1de1d335ceb84dd4a71829ca7ba08d,3280.831999063492,False,keypress,prescreenRsp_fadfat,886,[],choice-response,Fad,636e065bbae6d6e5860db41b,2022-11-11 03:22:51-05:00,Fad,2221,115,PrescreenTrials,PrescreenTrials,18abf,EXP8a,1,0,8
232,809,,6345b7f49677d36bd07c5a10,EXP8a_FJ,0,18abf9457c4327994b84f4fcbd4600130c1de1d335ceb84dd4a71829ca7ba08d,3280.831999063492,False,keypress,prescreenRsp_lablap,979,[],choice-response,Lab,636e065bbae6d6e5860db41b,2022-11-11 03:22:51-05:00,Lab,2130,116,PrescreenTrials,PrescreenTrials,18abf,EXP8a,1,0,8
233,810,,6345b7f49677d36bd07c5a10,EXP8a_FJ,0,18abf9457c4327994b84f4fcbd4600130c1de1d335ceb84dd4a71829ca7ba08d,3280.831999063492,False,keypress,prescreenRsp_bagback,1013,[],choice-response,Bag,636e065bbae6d6e5860db41b,2022-11-11 03:22:51-05:00,Bag,2135,117,PrescreenTrials,PrescreenTrials,18abf,EXP8a,1,0,8
234,811,,6345b7f49677d36bd07c5a10,EXP8a_FJ,0,18abf9457c4327994b84f4fcbd4600130c1de1d335ceb84dd4a71829ca7ba08d,3280.831999063492,False,keypress,prescreenRsp_cabcap,870,[],choice-response,Cab,636e065bbae6d6e5860db41b,2022-11-11 03:22:51-05:00,Cab,1984,118,PrescreenTrials,PrescreenTrials,18abf,EXP8a,1,0,8
235,812,,6345b7f49677d36bd07c5a10,EXP8a_FJ,0,18abf9457c4327994b84f4fcbd4600130c1de1d335ceb84dd4a71829ca7ba08d,3280.831999063492,False,keypress,prescreenRsp_beadbeat,1043,[],choice-response,Bead,636e065bbae6d6e5860db41b,2022-11-11 03:22:51-05:00,Bead,2232,119,PrescreenTrials,PrescreenTrials,18abf,EXP8a,1,0,8
236,813,,6345b7f49677d36bd07c5a10,EXP8a_FJ,0,18abf9457c4327994b84f4fcbd4600130c1de1d335ceb84dd4a71829ca7ba08d,3280.831999063492,False,keypress,prescreenRsp_fadfat,2071,[],choice-response,Fat,636e065bbae6d6e5860db41b,2022-11-11 03:22:51-05:00,Fat,3196,120,PrescreenTrials,PrescreenTrials,18abf,EXP8a,1,1,1
237,814,,6345b7f49677d36bd07c5a10,EXP8a_FJ,0,18abf9457c4327994b84f4fcbd4600130c1de1d335ceb84dd4a71829ca7ba08d,3280.831999063492,False,keypress,prescreenRsp_bagback,1069,[],choice-response,Back,636e065bbae6d6e5860db41b,2022-11-11 03:22:51-05:00,Back,2000,121,PrescreenTrials,PrescreenTrials,18abf,EXP8a,1,1,1
238,815,,6345b7f49677d36bd07c5a10,EXP8a_FJ,0,18abf9457c4327994b84f4fcbd4600130c1de1d335ceb84dd4a71829ca7ba08d,3280.831999063492,False,keypress,prescreenRsp_lablap,1167,[],choice-response,Lab,636e065bbae6d6e5860db41b,2022-11-11 03:22:51-05:00,Lap,2105,122,PrescreenTrials,PrescreenTrials,18abf,EXP8a,0,0,1
239,816,,6345b7f49677d36bd07c5a10,EXP8a_FJ,0,18abf9457c4327994b84f4fcbd4600130c1de1d335ceb84dd4a71829ca7ba08d,3280.831999063492,False,keypress,prescreenRsp_laglack,873,[],choice-response,Lag,636e065bbae6d6e5860db41b,2022-11-11 03:22:51-05:00,Lag,1991,123,PrescreenTrials,PrescreenTrials,18abf,EXP8a,1,0,8
240,1391,,6345b7f49677d36bd07c5a10,EXP8a_FJ,0,63687acfef1e35a885cf81400611b114daf331ee056bbc9789b26326d46bf638,1986.734727144241,False,keypress,prescreenRsp_laglack,2122,[],choice-response,Lag,636e065bbae6d6e5860db41b,2022-11-11 03:22:51-05:00,Lag,3477,4,PrescreenTrials,PrescreenTrials,63687,EXP8a,1,0,8
241,1392,,6345b7f49677d36bd07c5a10,EXP8a_FJ,0,63687acfef1e35a885cf81400611b114daf331ee056bbc9789b26326d46bf638,1986.734727144241,False,keypress,prescreenRsp_bagback,1290,[],choice-response,Bag,636e065bbae6d6e5860db41b,2022-11-11 03:22:51-05:00,Bag,2182,5,PrescreenTrials,PrescreenTrials,63687,EXP8a,1,0,8
242,1393,,6345b7f49677d36bd07c5a10,EXP8a_FJ,0,63687acfef1e35a885cf81400611b114daf331ee056bbc9789b26326d46bf638,1986.734727144241,False,keypress,prescreenRsp_cabcap,888,[],choice-response,Cap,636e065bbae6d6e5860db41b,2022-11-11 03:22:51-05:00,Cap,1623,6,PrescreenTrials,PrescreenTrials,63687,EXP8a,1,1,1
243,1394,,6345b7f49677d36bd07c5a10,EXP8a_FJ,0,63687acfef1e35a885cf81400611b114daf331ee056bbc9789b26326d46bf638,1986.734727144241,False,keypress,prescreenRsp_bagback,960,[],choice-response,Back,636e065bbae6d6e5860db41b,2022-11-11 03:22:51-05:00,Back,1677,7,PrescreenTrials,PrescreenTrials,63687,EXP8a,1,1,1
244,1395,,6345b7f49677d36bd07c5a10,EXP8a_FJ,0,63687acfef1e35a885cf81400611b114daf331ee056bbc9789b26326d46bf638,1986.734727144241,False,keypress,prescreenRsp_fadfat,877,[],choice-response,Fat,636e065bbae6d6e5860db41b,2022-11-11 03:22:51-05:00,Fat,1861,8,PrescreenTrials,PrescreenTrials,63687,EXP8a,1,1,1
245,1396,,6345b7f49677d36bd07c5a10,EXP8a_FJ,0,63687acfef1e35a885cf81400611b114daf331ee056bbc9789b26326d46bf638,1986.734727144241,False,keypress,prescreenRsp_beadbeat,1119,[],choice-response,Bead,636e065bbae6d6e5860db41b,2022-11-11 03:22:51-05:00,Bead,2066,9,PrescreenTrials,PrescreenTrials,63687,EXP8a,1,0,8
246,1397,,6345b7f49677d36bd07c5a10,EXP8a_FJ,0,63687acfef1e35a885cf81400611b114daf331ee056bbc9789b26326d46bf638,1986.734727144241,False,keypress,prescreenRsp_lablap,1902,[],choice-response,Lab,636e065bbae6d6e5860db41b,2022-11-11 03:22:51-05:00,Lab,2929,10,PrescreenTrials,PrescreenTrials,63687,EXP8a,1,0,8
247,1398,,6345b7f49677d36bd07c5a10,EXP8a_FJ,0,63687acfef1e35a885cf81400611b114daf331ee056bbc9789b26326d46bf638,1986.734727144241,False,keypress,prescreenRsp_laglack,973,[],choice-response,Lack,636e065bbae6d6e5860db41b,2022-11-11 03:22:51-05:00,Lack,1747,11,PrescreenTrials,PrescreenTrials,63687,EXP8a,1,1,1
248,1399,,6345b7f49677d36bd07c5a10,EXP8a_FJ,0,63687acfef1e35a885cf81400611b114daf331ee056bbc9789b26326d46bf638,1986.734727144241,False,keypress,prescreenRsp_fadfat,630,[],choice-response,Fad,636e065bbae6d6e5860db41b,2022-11-11 03:22:51-05:00,Fad,1829,12,PrescreenTrials,PrescreenTrials,63687,EXP8a,1,0,8
249,1400,,6345b7f49677d36bd07c5a10,EXP8a_FJ,0,63687acfef1e35a885cf81400611b114daf331ee056bbc9789b26326d46bf638,1986.734727144241,False,keypress,prescreenRsp_cabcap,1275,[],choice-response,Cab,636e065bbae6d6e5860db41b,2022-11-11 03:22:51-05:00,Cab,2269,13,PrescreenTrials,PrescreenTrials,63687,EXP8a,1,0,8
250,1401,,6345b7f49677d36bd07c5a10,EXP8a_FJ,0,63687acfef1e35a885cf81400611b114daf331ee056bbc9789b26326d46bf638,1986.734727144241,False,keypress,prescreenRsp_beadbeat,683,[],choice-response,Beat,636e065bbae6d6e5860db41b,2022-11-11 03:22:51-05:00,Beat,1463,14,PrescreenTrials,PrescreenTrials,63687,EXP8a,1,1,1
251,1402,,6345b7f49677d36bd07c5a10,EXP8a_FJ,0,63687acfef1e35a885cf81400611b114daf331ee056bbc9789b26326d46bf638,1986.734727144241,False,keypress,prescreenRsp_lablap,573,[],choice-response,Lap,636e065bbae6d6e5860db41b,2022-11-11 03:22:51-05:00,Lap,1355,15,PrescreenTrials,PrescreenTrials,63687,EXP8a,1,1,1
252,1403,,6345b7f49677d36bd07c5a10,EXP8a_FJ,0,63687acfef1e35a885cf81400611b114daf331ee056bbc9789b26326d46bf638,1986.734727144241,False,keypress,prescreenRsp_fadfat,853,[],choice-response,Fad,636e065bbae6d6e5860db41b,2022-11-11 03:22:51-05:00,Fad,2085,16,PrescreenTrials,PrescreenTrials,63687,EXP8a,1,0,8
253,1404,,6345b7f49677d36bd07c5a10,EXP8a_FJ,0,63687acfef1e35a885cf81400611b114daf331ee056bbc9789b26326d46bf638,1986.734727144241,False,keypress,prescreenRsp_laglack,1625,[],choice-response,Lack,636e065bbae6d6e5860db41b,2022-11-11 03:22:51-05:00,Lack,2377,17,PrescreenTrials,PrescreenTrials,63687,EXP8a,1,1,1
254,1405,,6345b7f49677d36bd07c5a10,EXP8a_FJ,0,63687acfef1e35a885cf81400611b114daf331ee056bbc9789b26326d46bf638,1986.734727144241,False,keypress,prescreenRsp_cabcap,713,[],choice-response,Cap,636e065bbae6d6e5860db41b,2022-11-11 03:22:51-05:00,Cap,1471,18,PrescreenTrials,PrescreenTrials,63687,EXP8a,1,1,1
255,1406,,6345b7f49677d36bd07c5a10,EXP8a_FJ,0,63687acfef1e35a885cf81400611b114daf331ee056bbc9789b26326d46bf638,1986.734727144241,False,keypress,prescreenRsp_beadbeat,855,[],choice-response,Bead,636e065bbae6d6e5860db41b,2022-11-11 03:22:51-05:00,Bead,1855,19,PrescreenTrials,PrescreenTrials,63687,EXP8a,1,0,8
256,1407,,6345b7f49677d36bd07c5a10,EXP8a_FJ,0,63687acfef1e35a885cf81400611b114daf331ee056bbc9789b26326d46bf638,1986.734727144241,False,keypress,prescreenRsp_cabcap,825,[],choice-response,Cab,636e065bbae6d6e5860db41b,2022-11-11 03:22:51-05:00,Cab,1825,20,PrescreenTrials,PrescreenTrials,63687,EXP8a,1,0,8
257,1408,,6345b7f49677d36bd07c5a10,EXP8a_FJ,0,63687acfef1e35a885cf81400611b114daf331ee056bbc9789b26326d46bf638,1986.734727144241,False,keypress,prescreenRsp_beadbeat,716,[],choice-response,Beat,636e065bbae6d6e5860db41b,2022-11-11 03:22:51-05:00,Beat,1525,21,PrescreenTrials,PrescreenTrials,63687,EXP8a,1,1,1
258,1409,,6345b7f49677d36bd07c5a10,EXP8a_FJ,0,63687acfef1e35a885cf81400611b114daf331ee056bbc9789b26326d46bf638,1986.734727144241,False,keypress,prescreenRsp_bagback,656,[],choice-response,Bag,636e065bbae6d6e5860db41b,2022-11-11 03:22:51-05:00,Bag,1605,22,PrescreenTrials,PrescreenTrials,63687,EXP8a,1,0,8
259,1410,,6345b7f49677d36bd07c5a10,EXP8a_FJ,0,63687acfef1e35a885cf81400611b114daf331ee056bbc9789b26326d46bf638,1986.734727144241,False,keypress,prescreenRsp_bagback,591,[],choice-response,Back,636e065bbae6d6e5860db41b,2022-11-11 03:22:51-05:00,Back,1308,23,PrescreenTrials,PrescreenTrials,63687,EXP8a,1,1,1
260,1411,,6345b7f49677d36bd07c5a10,EXP8a_FJ,0,63687acfef1e35a885cf81400611b114daf331ee056bbc9789b26326d46bf638,1986.734727144241,False,keypress,prescreenRsp_lablap,568,[],choice-response,Lab,636e065bbae6d6e5860db41b,2022-11-11 03:22:51-05:00,Lab,1543,24,PrescreenTrials,PrescreenTrials,63687,EXP8a,1,0,8
261,1412,,6345b7f49677d36bd07c5a10,EXP8a_FJ,0,63687acfef1e35a885cf81400611b114daf331ee056bbc9789b26326d46bf638,1986.734727144241,False,keypress,prescreenRsp_laglack,625,[],choice-response,Lag,636e065bbae6d6e5860db41b,2022-11-11 03:22:51-05:00,Lag,1600,25,PrescreenTrials,PrescreenTrials,63687,EXP8a,1,0,8
262,1413,,6345b7f49677d36bd07c5a10,EXP8a_FJ,0,63687acfef1e35a885cf81400611b114daf331ee056bbc9789b26326d46bf638,1986.734727144241,False,keypress,prescreenRsp_lablap,643,[],choice-response,Lap,636e065bbae6d6e5860db41b,2022-11-11 03:22:51-05:00,Lap,1402,26,PrescreenTrials,PrescreenTrials,63687,EXP8a,1,1,1
263,1414,,6345b7f49677d36bd07c5a10,EXP8a_FJ,0,63687acfef1e35a885cf81400611b114daf331ee056bbc9789b26326d46bf638,1986.734727144241,False,keypress,prescreenRsp_fadfat,761,[],choice-response,Fat,636e065bbae6d6e5860db41b,2022-11-11 03:22:51-05:00,Fat,1702,27,PrescreenTrials,PrescreenTrials,63687,EXP8a,1,1,1
264,1415,,6345b7f49677d36bd07c5a10,EXP8a_FJ,0,63687acfef1e35a885cf81400611b114daf331ee056bbc9789b26326d46bf638,1986.734727144241,False,keypress,prescreenRsp_lablap,1079,[],choice-response,Lap,636e065bbae6d6e5860db41b,2022-11-11 03:22:51-05:00,Lap,1853,28,PrescreenTrials,PrescreenTrials,63687,EXP8a,1,1,1
265,1416,,6345b7f49677d36bd07c5a10,EXP8a_FJ,0,63687acfef1e35a885cf81400611b114daf331ee056bbc9789b26326d46bf638,1986.734727144241,False,keypress,prescreenRsp_laglack,1003,[],choice-response,Lag,636e065bbae6d6e5860db41b,2022-11-11 03:22:51-05:00,Lag,1989,29,PrescreenTrials,PrescreenTrials,63687,EXP8a,1,0,8
266,1417,,6345b7f49677d36bd07c5a10,EXP8a_FJ,0,63687acfef1e35a885cf81400611b114daf331ee056bbc9789b26326d46bf638,1986.734727144241,False,keypress,prescreenRsp_bagback,778,[],choice-response,Bag,636e065bbae6d6e5860db41b,2022-11-11 03:22:51-05:00,Back,1501,30,PrescreenTrials,PrescreenTrials,63687,EXP8a,0,0,1
267,1418,,6345b7f49677d36bd07c5a10,EXP8a_FJ,0,63687acfef1e35a885cf81400611b114daf331ee056bbc9789b26326d46bf638,1986.734727144241,False,keypress,prescreenRsp_beadbeat,689,[],choice-response,Bead,636e065bbae6d6e5860db41b,2022-11-11 03:22:51-05:00,Bead,1685,31,PrescreenTrials,PrescreenTrials,63687,EXP8a,1,0,8
268,1419,,6345b7f49677d36bd07c5a10,EXP8a_FJ,0,63687acfef1e35a885cf81400611b114daf331ee056bbc9789b26326d46bf638,1986.734727144241,False,keypress,prescreenRsp_cabcap,1160,[],choice-response,Cab,636e065bbae6d6e5860db41b,2022-11-11 03:22:51-05:00,Cab,2126,32,PrescreenTrials,PrescreenTrials,63687,EXP8a,1,0,8
269,1420,,6345b7f49677d36bd07c5a10,EXP8a_FJ,0,63687acfef1e35a885cf81400611b114daf331ee056bbc9789b26326d46bf638,1986.734727144241,False,keypress,prescreenRsp_lablap,655,[],choice-response,Lab,636e065bbae6d6e5860db41b,2022-11-11 03:22:51-05:00,Lab,1589,33,PrescreenTrials,PrescreenTrials,63687,EXP8a,1,0,8
270,1421,,6345b7f49677d36bd07c5a10,EXP8a_FJ,0,63687acfef1e35a885cf81400611b114daf331ee056bbc9789b26326d46bf638,1986.734727144241,False,keypress,prescreenRsp_fadfat,959,[],choice-response,Fat,636e065bbae6d6e5860db41b,2022-11-11 03:22:51-05:00,Fat,1869,34,PrescreenTrials,PrescreenTrials,63687,EXP8a,1,1,1
271,1422,,6345b7f49677d36bd07c5a10,EXP8a_FJ,0,63687acfef1e35a885cf81400611b114daf331ee056bbc9789b26326d46bf638,1986.734727144241,False,keypress,prescreenRsp_laglack,613,[],choice-response,Lack,636e065bbae6d6e5860db41b,2022-11-11 03:22:51-05:00,Lack,1371,35,PrescreenTrials,PrescreenTrials,63687,EXP8a,1,1,1
272,1423,,6345b7f49677d36bd07c5a10,EXP8a_FJ,0,63687acfef1e35a885cf81400611b114daf331ee056bbc9789b26326d46bf638,1986.734727144241,False,keypress,prescreenRsp_fadfat,298,[],choice-response,Fat,636e065bbae6d6e5860db41b,2022-11-11 03:22:51-05:00,Fad,1449,36,PrescreenTrials,PrescreenTrials,63687,EXP8a,0,1,8
273,1424,,6345b7f49677d36bd07c5a10,EXP8a_FJ,0,63687acfef1e35a885cf81400611b114daf331ee056bbc9789b26326d46bf638,1986.734727144241,False,keypress,prescreenRsp_beadbeat,230,[],choice-response,Beat,636e065bbae6d6e5860db41b,2022-11-11 03:22:51-05:00,Beat,1016,37,PrescreenTrials,PrescreenTrials,63687,EXP8a,1,1,1
274,1425,,6345b7f49677d36bd07c5a10,EXP8a_FJ,0,63687acfef1e35a885cf81400611b114daf331ee056bbc9789b26326d46bf638,1986.734727144241,False,keypress,prescreenRsp_bagback,414,[],choice-response,Bag,636e065bbae6d6e5860db41b,2022-11-11 03:22:51-05:00,Bag,1360,38,PrescreenTrials,PrescreenTrials,63687,EXP8a,1,0,8
275,1426,,6345b7f49677d36bd07c5a10,EXP8a_FJ,0,63687acfef1e35a885cf81400611b114daf331ee056bbc9789b26326d46bf638,1986.734727144241,False,keypress,prescreenRsp_cabcap,39,[],choice-response,Cab,636e065bbae6d6e5860db41b,2022-11-11 03:22:51-05:00,Cap,759,39,PrescreenTrials,PrescreenTrials,63687,EXP8a,0,0,1
276,1427,,6345b7f49677d36bd07c5a10,EXP8a_FJ,0,63687acfef1e35a885cf81400611b114daf331ee056bbc9789b26326d46bf638,1986.734727144241,False,keypress,prescreenRsp_lablap,262,[],choice-response,Lap,636e065bbae6d6e5860db41b,2022-11-11 03:22:51-05:00,Lab,1200,40,PrescreenTrials,PrescreenTrials,63687,EXP8a,0,1,8
277,1428,,6345b7f49677d36bd07c5a10,EXP8a_FJ,0,63687acfef1e35a885cf81400611b114daf331ee056bbc9789b26326d46bf638,1986.734727144241,False,keypress,prescreenRsp_fadfat,186,[],choice-response,Fad,636e065bbae6d6e5860db41b,2022-11-11 03:22:51-05:00,Fad,1357,41,PrescreenTrials,PrescreenTrials,63687,EXP8a,1,0,8
278,1429,,6345b7f49677d36bd07c5a10,EXP8a_FJ,0,63687acfef1e35a885cf81400611b114daf331ee056bbc9789b26326d46bf638,1986.734727144241,False,keypress,prescreenRsp_laglack,187,[],choice-response,Lack,636e065bbae6d6e5860db41b,2022-11-11 03:22:51-05:00,Lack,945,42,PrescreenTrials,PrescreenTrials,63687,EXP8a,1,1,1
279,1430,,6345b7f49677d36bd07c5a10,EXP8a_FJ,0,63687acfef1e35a885cf81400611b114daf331ee056bbc9789b26326d46bf638,1986.734727144241,False,keypress,prescreenRsp_cabcap,90,[],choice-response,Cab,636e065bbae6d6e5860db41b,2022-11-11 03:22:51-05:00,Cab,1038,43,PrescreenTrials,PrescreenTrials,63687,EXP8a,1,0,8
280,1431,,6345b7f49677d36bd07c5a10,EXP8a_FJ,0,63687acfef1e35a885cf81400611b114daf331ee056bbc9789b26326d46bf638,1986.734727144241,False,keypress,prescreenRsp_cabcap,197,[],choice-response,Cap,636e065bbae6d6e5860db41b,2022-11-11 03:22:51-05:00,Cap,923,44,PrescreenTrials,PrescreenTrials,63687,EXP8a,1,1,1
281,1432,,6345b7f49677d36bd07c5a10,EXP8a_FJ,0,63687acfef1e35a885cf81400611b114daf331ee056bbc9789b26326d46bf638,1986.734727144241,False,keypress,prescreenRsp_fadfat,701,[],choice-response,Fat,636e065bbae6d6e5860db41b,2022-11-11 03:22:51-05:00,Fat,1656,45,PrescreenTrials,PrescreenTrials,63687,EXP8a,1,1,1
282,1433,,6345b7f49677d36bd07c5a10,EXP8a_FJ,0,63687acfef1e35a885cf81400611b114daf331ee056bbc9789b26326d46bf638,1986.734727144241,False,keypress,prescreenRsp_lablap,433,[],choice-response,Lap,636e065bbae6d6e5860db41b,2022-11-11 03:22:51-05:00,Lap,1197,46,PrescreenTrials,PrescreenTrials,63687,EXP8a,1,1,1
283,1434,,6345b7f49677d36bd07c5a10,EXP8a_FJ,0,63687acfef1e35a885cf81400611b114daf331ee056bbc9789b26326d46bf638,1986.734727144241,False,keypress,prescreenRsp_bagback,572,[],choice-response,Bag,636e065bbae6d6e5860db41b,2022-11-11 03:22:51-05:00,Bag,1535,47,PrescreenTrials,PrescreenTrials,63687,EXP8a,1,0,8
284,1435,,6345b7f49677d36bd07c5a10,EXP8a_FJ,0,63687acfef1e35a885cf81400611b114daf331ee056bbc9789b26326d46bf638,1986.734727144241,False,keypress,prescreenRsp_bagback,384,[],choice-response,Back,636e065bbae6d6e5860db41b,2022-11-11 03:22:51-05:00,Back,1117,48,PrescreenTrials,PrescreenTrials,63687,EXP8a,1,1,1
285,1436,,6345b7f49677d36bd07c5a10,EXP8a_FJ,0,63687acfef1e35a885cf81400611b114daf331ee056bbc9789b26326d46bf638,1986.734727144241,False,keypress,prescreenRsp_beadbeat,371,[],choice-response,Beat,636e065bbae6d6e5860db41b,2022-11-11 03:22:51-05:00,Beat,1152,49,PrescreenTrials,PrescreenTrials,63687,EXP8a,1,1,1
286,1437,,6345b7f49677d36bd07c5a10,EXP8a_FJ,0,63687acfef1e35a885cf81400611b114daf331ee056bbc9789b26326d46bf638,1986.734727144241,False,keypress,prescreenRsp_laglack,315,[],choice-response,Lack,636e065bbae6d6e5860db41b,2022-11-11 03:22:51-05:00,Lag,1299,50,PrescreenTrials,PrescreenTrials,63687,EXP8a,0,1,8
287,1438,,6345b7f49677d36bd07c5a10,EXP8a_FJ,0,63687acfef1e35a885cf81400611b114daf331ee056bbc9789b26326d46bf638,1986.734727144241,False,keypress,prescreenRsp_beadbeat,557,[],choice-response,Bead,636e065bbae6d6e5860db41b,2022-11-11 03:22:51-05:00,Bead,1526,51,PrescreenTrials,PrescreenTrials,63687,EXP8a,1,0,8
288,1439,,6345b7f49677d36bd07c5a10,EXP8a_FJ,0,63687acfef1e35a885cf81400611b114daf331ee056bbc9789b26326d46bf638,1986.734727144241,False,keypress,prescreenRsp_lablap,466,[],choice-response,Lap,636e065bbae6d6e5860db41b,2022-11-11 03:22:51-05:00,Lap,1194,52,PrescreenTrials,PrescreenTrials,63687,EXP8a,1,1,1
289,1440,,6345b7f49677d36bd07c5a10,EXP8a_FJ,0,63687acfef1e35a885cf81400611b114daf331ee056bbc9789b26326d46bf638,1986.734727144241,False,keypress,prescreenRsp_laglack,824,[],choice-response,Lag,636e065bbae6d6e5860db41b,2022-11-11 03:22:51-05:00,Lag,1783,53,PrescreenTrials,PrescreenTrials,63687,EXP8a,1,0,8
290,1441,,6345b7f49677d36bd07c5a10,EXP8a_FJ,0,63687acfef1e35a885cf81400611b114daf331ee056bbc9789b26326d46bf638,1986.734727144241,False,keypress,prescreenRsp_fadfat,693,[],choice-response,Fad,636e065bbae6d6e5860db41b,2022-11-11 03:22:51-05:00,Fad,1813,54,PrescreenTrials,PrescreenTrials,63687,EXP8a,1,0,8
291,1442,,6345b7f49677d36bd07c5a10,EXP8a_FJ,0,63687acfef1e35a885cf81400611b114daf331ee056bbc9789b26326d46bf638,1986.734727144241,False,keypress,prescreenRsp_bagback,814,[],choice-response,Bag,636e065bbae6d6e5860db41b,2022-11-11 03:22:51-05:00,Bag,1786,55,PrescreenTrials,PrescreenTrials,63687,EXP8a,1,0,8
292,1443,,6345b7f49677d36bd07c5a10,EXP8a_FJ,0,63687acfef1e35a885cf81400611b114daf331ee056bbc9789b26326d46bf638,1986.734727144241,False,keypress,prescreenRsp_bagback,501,[],choice-response,Back,636e065bbae6d6e5860db41b,2022-11-11 03:22:51-05:00,Back,1212,56,PrescreenTrials,PrescreenTrials,63687,EXP8a,1,1,1
293,1444,,6345b7f49677d36bd07c5a10,EXP8a_FJ,0,63687acfef1e35a885cf81400611b114daf331ee056bbc9789b26326d46bf638,1986.734727144241,False,keypress,prescreenRsp_fadfat,478,[],choice-response,Fat,636e065bbae6d6e5860db41b,2022-11-11 03:22:51-05:00,Fat,1402,57,PrescreenTrials,PrescreenTrials,63687,EXP8a,1,1,1
294,1445,,6345b7f49677d36bd07c5a10,EXP8a_FJ,0,63687acfef1e35a885cf81400611b114daf331ee056bbc9789b26326d46bf638,1986.734727144241,False,keypress,prescreenRsp_beadbeat,506,[],choice-response,Beat,636e065bbae6d6e5860db41b,2022-11-11 03:22:51-05:00,Beat,1302,58,PrescreenTrials,PrescreenTrials,63687,EXP8a,1,1,1
295,1446,,6345b7f49677d36bd07c5a10,EXP8a_FJ,0,63687acfef1e35a885cf81400611b114daf331ee056bbc9789b26326d46bf638,1986.734727144241,False,keypress,prescreenRsp_laglack,545,[],choice-response,Lack,636e065bbae6d6e5860db41b,2022-11-11 03:22:51-05:00,Lack,1294,59,PrescreenTrials,PrescreenTrials,63687,EXP8a,1,1,1
296,1447,,6345b7f49677d36bd07c5a10,EXP8a_FJ,0,63687acfef1e35a885cf81400611b114daf331ee056bbc9789b26326d46bf638,1986.734727144241,False,keypress,prescreenRsp_beadbeat,405,[],choice-response,Bead,636e065bbae6d6e5860db41b,2022-11-11 03:22:51-05:00,Bead,1375,60,PrescreenTrials,PrescreenTrials,63687,EXP8a,1,0,8
297,1448,,6345b7f49677d36bd07c5a10,EXP8a_FJ,0,63687acfef1e35a885cf81400611b114daf331ee056bbc9789b26326d46bf638,1986.734727144241,False,keypress,prescreenRsp_lablap,401,[],choice-response,Lap,636e065bbae6d6e5860db41b,2022-11-11 03:22:51-05:00,Lab,1368,61,PrescreenTrials,PrescreenTrials,63687,EXP8a,0,1,8
298,1449,,6345b7f49677d36bd07c5a10,EXP8a_FJ,0,63687acfef1e35a885cf81400611b114daf331ee056bbc9789b26326d46bf638,1986.734727144241,False,keypress,prescreenRsp_cabcap,477,[],choice-response,Cap,636e065bbae6d6e5860db41b,2022-11-11 03:22:51-05:00,Cab,1410,62,PrescreenTrials,PrescreenTrials,63687,EXP8a,0,1,8
299,1450,,6345b7f49677d36bd07c5a10,EXP8a_FJ,0,63687acfef1e35a885cf81400611b114daf331ee056bbc9789b26326d46bf638,1986.734727144241,False,keypress,prescreenRsp_cabcap,439,[],choice-response,Cap,636e065bbae6d6e5860db41b,2022-11-11 03:22:51-05:00,Cap,1186,63,PrescreenTrials,PrescreenTrials,63687,EXP8a,1,1,1
300,1451,,6345b7f49677d36bd07c5a10,EXP8a_FJ,0,63687acfef1e35a885cf81400611b114daf331ee056bbc9789b26326d46bf638,1986.734727144241,False,keypress,prescreenRsp_fadfat,459,[],choice-response,Fat,636e065bbae6d6e5860db41b,2022-11-11 03:22:51-05:00,Fat,1384,64,PrescreenTrials,PrescreenTrials,63687,EXP8a,1,1,1
301,1452,,6345b7f49677d36bd07c5a10,EXP8a_FJ,0,63687acfef1e35a885cf81400611b114daf331ee056bbc9789b26326d46bf638,1986.734727144241,False,keypress,prescreenRsp_laglack,408,[],choice-response,Lack,636e065bbae6d6e5860db41b,2022-11-11 03:22:51-05:00,Lack,1153,65,PrescreenTrials,PrescreenTrials,63687,EXP8a,1,1,1
302,1453,,6345b7f49677d36bd07c5a10,EXP8a_FJ,0,63687acfef1e35a885cf81400611b114daf331ee056bbc9789b26326d46bf638,1986.734727144241,False,keypress,prescreenRsp_cabcap,391,[],choice-response,Cap,636e065bbae6d6e5860db41b,2022-11-11 03:22:51-05:00,Cap,1127,66,PrescreenTrials,PrescreenTrials,63687,EXP8a,1,1,1
303,1454,,6345b7f49677d36bd07c5a10,EXP8a_FJ,0,63687acfef1e35a885cf81400611b114daf331ee056bbc9789b26326d46bf638,1986.734727144241,False,keypress,prescreenRsp_laglack,437,[],choice-response,Lack,636e065bbae6d6e5860db41b,2022-11-11 03:22:51-05:00,Lag,1402,67,PrescreenTrials,PrescreenTrials,63687,EXP8a,0,1,8
304,1455,,6345b7f49677d36bd07c5a10,EXP8a_FJ,0,63687acfef1e35a885cf81400611b114daf331ee056bbc9789b26326d46bf638,1986.734727144241,False,keypress,prescreenRsp_bagback,890,[],choice-response,Bag,636e065bbae6d6e5860db41b,2022-11-11 03:22:51-05:00,Bag,1827,68,PrescreenTrials,PrescreenTrials,63687,EXP8a,1,0,8
305,1456,,6345b7f49677d36bd07c5a10,EXP8a_FJ,0,63687acfef1e35a885cf81400611b114daf331ee056bbc9789b26326d46bf638,1986.734727144241,False,keypress,prescreenRsp_bagback,638,[],choice-response,Back,636e065bbae6d6e5860db41b,2022-11-11 03:22:51-05:00,Back,1353,69,PrescreenTrials,PrescreenTrials,63687,EXP8a,1,1,1
306,1457,,6345b7f49677d36bd07c5a10,EXP8a_FJ,0,63687acfef1e35a885cf81400611b114daf331ee056bbc9789b26326d46bf638,1986.734727144241,False,keypress,prescreenRsp_lablap,467,[],choice-response,Lap,636e065bbae6d6e5860db41b,2022-11-11 03:22:51-05:00,Lap,1234,70,PrescreenTrials,PrescreenTrials,63687,EXP8a,1,1,1
307,1458,,6345b7f49677d36bd07c5a10,EXP8a_FJ,0,63687acfef1e35a885cf81400611b114daf331ee056bbc9789b26326d46bf638,1986.734727144241,False,keypress,prescreenRsp_beadbeat,617,[],choice-response,Bead,636e065bbae6d6e5860db41b,2022-11-11 03:22:51-05:00,Bead,1585,71,PrescreenTrials,PrescreenTrials,63687,EXP8a,1,0,8
308,1459,,6345b7f49677d36bd07c5a10,EXP8a_FJ,0,63687acfef1e35a885cf81400611b114daf331ee056bbc9789b26326d46bf638,1986.734727144241,False,keypress,prescreenRsp_cabcap,597,[],choice-response,Cab,636e065bbae6d6e5860db41b,2022-11-11 03:22:51-05:00,Cab,1573,72,PrescreenTrials,PrescreenTrials,63687,EXP8a,1,0,8
309,1460,,6345b7f49677d36bd07c5a10,EXP8a_FJ,0,63687acfef1e35a885cf81400611b114daf331ee056bbc9789b26326d46bf638,1986.734727144241,False,keypress,prescreenRsp_beadbeat,612,[],choice-response,Beat,636e065bbae6d6e5860db41b,2022-11-11 03:22:51-05:00,Beat,1381,73,PrescreenTrials,PrescreenTrials,63687,EXP8a,1,1,1
310,1461,,6345b7f49677d36bd07c5a10,EXP8a_FJ,0,63687acfef1e35a885cf81400611b114daf331ee056bbc9789b26326d46bf638,1986.734727144241,False,keypress,prescreenRsp_fadfat,399,[],choice-response,Fat,636e065bbae6d6e5860db41b,2022-11-11 03:22:51-05:00,Fad,1522,74,PrescreenTrials,PrescreenTrials,63687,EXP8a,0,1,8
311,1462,,6345b7f49677d36bd07c5a10,EXP8a_FJ,0,63687acfef1e35a885cf81400611b114daf331ee056bbc9789b26326d46bf638,1986.734727144241,False,keypress,prescreenRsp_lablap,215,[],choice-response,Lab,636e065bbae6d6e5860db41b,2022-11-11 03:22:51-05:00,Lab,1189,75,PrescreenTrials,PrescreenTrials,63687,EXP8a,1,0,8
312,1463,,6345b7f49677d36bd07c5a10,EXP8a_FJ,0,63687acfef1e35a885cf81400611b114daf331ee056bbc9789b26326d46bf638,1986.734727144241,False,keypress,prescreenRsp_fadfat,346,[],choice-response,Fat,636e065bbae6d6e5860db41b,2022-11-11 03:22:51-05:00,Fat,1287,76,PrescreenTrials,PrescreenTrials,63687,EXP8a,1,1,1
313,1464,,6345b7f49677d36bd07c5a10,EXP8a_FJ,0,63687acfef1e35a885cf81400611b114daf331ee056bbc9789b26326d46bf638,1986.734727144241,False,keypress,prescreenRsp_laglack,562,[],choice-response,Lack,636e065bbae6d6e5860db41b,2022-11-11 03:22:51-05:00,Lack,1334,77,PrescreenTrials,PrescreenTrials,63687,EXP8a,1,1,1
314,1465,,6345b7f49677d36bd07c5a10,EXP8a_FJ,0,63687acfef1e35a885cf81400611b114daf331ee056bbc9789b26326d46bf638,1986.734727144241,False,keypress,prescreenRsp_lablap,451,[],choice-response,Lap,636e065bbae6d6e5860db41b,2022-11-11 03:22:51-05:00,Lap,1201,78,PrescreenTrials,PrescreenTrials,63687,EXP8a,1,1,1
315,1466,,6345b7f49677d36bd07c5a10,EXP8a_FJ,0,63687acfef1e35a885cf81400611b114daf331ee056bbc9789b26326d46bf638,1986.734727144241,False,keypress,prescreenRsp_cabcap,310,[],choice-response,Cab,636e065bbae6d6e5860db41b,2022-11-11 03:22:51-05:00,Cab,1273,79,PrescreenTrials,PrescreenTrials,63687,EXP8a,1,0,8
316,1467,,6345b7f49677d36bd07c5a10,EXP8a_FJ,0,63687acfef1e35a885cf81400611b114daf331ee056bbc9789b26326d46bf638,1986.734727144241,False,keypress,prescreenRsp_lablap,573,[],choice-response,Lap,636e065bbae6d6e5860db41b,2022-11-11 03:22:51-05:00,Lab,1518,80,PrescreenTrials,PrescreenTrials,63687,EXP8a,0,1,8
317,1468,,6345b7f49677d36bd07c5a10,EXP8a_FJ,0,63687acfef1e35a885cf81400611b114daf331ee056bbc9789b26326d46bf638,1986.734727144241,False,keypress,prescreenRsp_bagback,732,[],choice-response,Back,636e065bbae6d6e5860db41b,2022-11-11 03:22:51-05:00,Back,1453,81,PrescreenTrials,PrescreenTrials,63687,EXP8a,1,1,1
318,1469,,6345b7f49677d36bd07c5a10,EXP8a_FJ,0,63687acfef1e35a885cf81400611b114daf331ee056bbc9789b26326d46bf638,1986.734727144241,False,keypress,prescreenRsp_laglack,766,[],choice-response,Lag,636e065bbae6d6e5860db41b,2022-11-11 03:22:51-05:00,Lag,1759,82,PrescreenTrials,PrescreenTrials,63687,EXP8a,1,0,8
319,1470,,6345b7f49677d36bd07c5a10,EXP8a_FJ,0,63687acfef1e35a885cf81400611b114daf331ee056bbc9789b26326d46bf638,1986.734727144241,False,keypress,prescreenRsp_cabcap,632,[],choice-response,Cap,636e065bbae6d6e5860db41b,2022-11-11 03:22:51-05:00,Cap,1371,83,PrescreenTrials,PrescreenTrials,63687,EXP8a,1,1,1
320,1471,,6345b7f49677d36bd07c5a10,EXP8a_FJ,0,63687acfef1e35a885cf81400611b114daf331ee056bbc9789b26326d46bf638,1986.734727144241,False,keypress,prescreenRsp_fadfat,460,[],choice-response,Fad,636e065bbae6d6e5860db41b,2022-11-11 03:22:51-05:00,Fad,1593,84,PrescreenTrials,PrescreenTrials,63687,EXP8a,1,0,8
321,1472,,6345b7f49677d36bd07c5a10,EXP8a_FJ,0,63687acfef1e35a885cf81400611b114daf331ee056bbc9789b26326d46bf638,1986.734727144241,False,keypress,prescreenRsp_beadbeat,726,[],choice-response,Bead,636e065bbae6d6e5860db41b,2022-11-11 03:22:51-05:00,Bead,1723,85,PrescreenTrials,PrescreenTrials,63687,EXP8a,1,0,8
322,1473,,6345b7f49677d36bd07c5a10,EXP8a_FJ,0,63687acfef1e35a885cf81400611b114daf331ee056bbc9789b26326d46bf638,1986.734727144241,False,keypress,prescreenRsp_bagback,1140,[],choice-response,Bag,636e065bbae6d6e5860db41b,2022-11-11 03:22:51-05:00,Bag,2080,86,PrescreenTrials,PrescreenTrials,63687,EXP8a,1,0,8
323,1474,,6345b7f49677d36bd07c5a10,EXP8a_FJ,0,63687acfef1e35a885cf81400611b114daf331ee056bbc9789b26326d46bf638,1986.734727144241,False,keypress,prescreenRsp_beadbeat,657,[],choice-response,Beat,636e065bbae6d6e5860db41b,2022-11-11 03:22:51-05:00,Beat,1420,87,PrescreenTrials,PrescreenTrials,63687,EXP8a,1,1,1
