,branch_failpass,expt_id,group_id,network_error_repeat,participant_id,participation_duration,response_correct,response_mode,response_name,response_rt,response_target,response_type,response_value,session_id,session_start_time,stimuli_presented,trial_duration,trial_num,trial_template,task,sub_id,exp
0,pass,6345b7f49677d36bd07c5a10,EXP8c_JF,0,4c685da32c0562c7f3203118347ebe68afd88aa9613a0cf489f21535e520580c,2422.6003191471104,False,click,tone_or_word,6773,[],choice-response,Musical Tones,636e065bbae6d6e5860db41b,2022-11-11 03:22:51-05:00,debrief3,6777,423,Tone_word_debrief,Tone,4c685,EXP8c
1,pass,6345b7f49677d36bd07c5a10,EXP8c_JF,0,4c685da32c0562c7f3203118347ebe68afd88aa9613a0cf489f21535e520580c,2422.6003191471104,,keypress,TxRsp,39953,,text-response,"I did not hear the words lab or lap in those sounds. I did, however, feel the tones as long and short.",636e065bbae6d6e5860db41b,2022-11-11 03:22:51-05:00,debrief4,39958,424,Tone_word_debrief,Tone,4c685,EXP8c
2,fail,6345b7f49677d36bd07c5a10,EXP8c_JF,0,e1f714c783707d4ffe69f2b25db4fb4bb582b5c1ef8590c78a853e5b219d16a9,2277.8469169139858,False,click,tone_or_word,20225,[],choice-response,Musical Tones,636e065bbae6d6e5860db41b,2022-11-11 03:22:51-05:00,debrief3,20228,435,Tone_word_debrief,Tone,e1f71,EXP8c
3,fail,6345b7f49677d36bd07c5a10,EXP8c_JF,0,e1f714c783707d4ffe69f2b25db4fb4bb582b5c1ef8590c78a853e5b219d16a9,2277.8469169139858,,keypress,TxRsp,39111,,text-response,"The sounds just sounded like tones to me, there was no meaning behind them in my mind.",636e065bbae6d6e5860db41b,2022-11-11 03:22:51-05:00,debrief4,39114,436,Tone_word_debrief,Tone,e1f71,EXP8c
4,fail,6345b7f49677d36bd07c5a10,EXP8c_FJ,0,37e15519097abf5252308b8b30ee8dfe6087b51322d97d38bbbb272809532f44,2400.63973402977,False,click,tone_or_word,10155,[],choice-response,Lab or Lap,636e065bbae6d6e5860db41b,2022-11-11 03:22:51-05:00,debrief3,10159,435,Tone_word_debrief,Tone,37e15,EXP8c
5,fail,6345b7f49677d36bd07c5a10,EXP8c_FJ,0,37e15519097abf5252308b8b30ee8dfe6087b51322d97d38bbbb272809532f44,2400.63973402977,,keypress,TxRsp,21349,,text-response,Feel the sound as being lab or lap,636e065bbae6d6e5860db41b,2022-11-11 03:22:51-05:00,debrief4,21353,436,Tone_word_debrief,Tone,37e15,EXP8c
6,pass,6345b7f49677d36bd07c5a10,EXP8c_JF,0,8167ced290d92f11fda04d3bb0c11169a41303326ef04ea0c08c5cd3a9d8dd9a,1673.3434219360352,False,click,tone_or_word,6800,[],choice-response,Musical Tones,636e065bbae6d6e5860db41b,2022-11-11 03:22:51-05:00,debrief3,6803,423,Tone_word_debrief,Tone,8167c,EXP8c
7,pass,6345b7f49677d36bd07c5a10,EXP8c_JF,0,8167ced290d92f11fda04d3bb0c11169a41303326ef04ea0c08c5cd3a9d8dd9a,1673.3434219360352,,keypress,TxRsp,26588,,text-response,I honestly did not hear a single word and it sounded like tone. Maybe lab and lap were used because of their length of the words in English language,636e065bbae6d6e5860db41b,2022-11-11 03:22:51-05:00,debrief4,26597,424,Tone_word_debrief,Tone,8167c,EXP8c
8,fail,6345b7f49677d36bd07c5a10,EXP8c_JF,0,cbdda6913e3c5fc5ab370f5570992ca18e574f3c15b44b215b7a86c493a07c13,2306.8749539852147,False,click,tone_or_word,14700,[],choice-response,Musical Tones,636e065bbae6d6e5860db41b,2022-11-11 03:22:51-05:00,debrief3,14703,435,Tone_word_debrief,Tone,cbdda,EXP8c
9,fail,6345b7f49677d36bd07c5a10,EXP8c_JF,0,cbdda6913e3c5fc5ab370f5570992ca18e574f3c15b44b215b7a86c493a07c13,2306.8749539852147,,keypress,TxRsp,17638,,text-response,"They didn't feel like anything, just sounds.",636e065bbae6d6e5860db41b,2022-11-11 03:22:51-05:00,debrief4,17641,436,Tone_word_debrief,Tone,cbdda,EXP8c
10,pass,6345b7f49677d36bd07c5a10,EXP8c_FJ,0,3a8b4685933f50bf0b910c7f3f9debf8eae8837294f77a6cc7bc2c53910ba476,2399.9184448719025,False,click,tone_or_word,46183,[],choice-response,Musical Tones,636e065bbae6d6e5860db41b,2022-11-11 03:22:51-05:00,debrief3,46185,423,Tone_word_debrief,Tone,3a8b4,EXP8c
11,pass,6345b7f49677d36bd07c5a10,EXP8c_FJ,0,3a8b4685933f50bf0b910c7f3f9debf8eae8837294f77a6cc7bc2c53910ba476,2399.9184448719025,,keypress,TxRsp,48635,,text-response,"English has very harsh ""p"" sounds and I found it difficult to hear that but it did seem more like an abrupt stop which made it feel more musical than word like.",636e065bbae6d6e5860db41b,2022-11-11 03:22:51-05:00,debrief4,48718,424,Tone_word_debrief,Tone,3a8b4,EXP8c
12,pass,6345b7f49677d36bd07c5a10,EXP8c_FJ,0,83580f8a886e834911f97058709a23a6ae5fc38fd5de045c2211491d55303283,3363.250174999237,False,click,tone_or_word,11492,[],choice-response,Lab or Lap,636e065bbae6d6e5860db41b,2022-11-11 03:22:51-05:00,debrief3,11495,423,Tone_word_debrief,Tone,83580,EXP8c
13,pass,6345b7f49677d36bd07c5a10,EXP8c_FJ,0,83580f8a886e834911f97058709a23a6ae5fc38fd5de045c2211491d55303283,3363.250174999237,,keypress,TxRsp,29637,,text-response,I did not feel the sound I just thought if the sound was shorter than it was left key and vise versa,636e065bbae6d6e5860db41b,2022-11-11 03:22:51-05:00,debrief4,29641,424,Tone_word_debrief,Tone,83580,EXP8c
14,pass,6345b7f49677d36bd07c5a10,EXP8c_FJ,0,499df02321f2cc432836f758c23e2569da890be9bc590c179d64608a2bf7392e,1845.6144988536842,False,click,tone_or_word,5294,[],choice-response,Musical Tones,636e065bbae6d6e5860db41b,2022-11-11 03:22:51-05:00,debrief3,5297,423,Tone_word_debrief,Tone,499df,EXP8c
15,pass,6345b7f49677d36bd07c5a10,EXP8c_FJ,0,499df02321f2cc432836f758c23e2569da890be9bc590c179d64608a2bf7392e,1845.6144988536842,,keypress,TxRsp,23007,,text-response,"Musical tones 
Lab = the last sound was cut short
Lap = the last sound was smoother and longer",636e065bbae6d6e5860db41b,2022-11-11 03:22:51-05:00,debrief4,23009,424,Tone_word_debrief,Tone,499df,EXP8c
16,pass,6345b7f49677d36bd07c5a10,EXP8c_JF,0,97d8a73ec6fa1777658307bb0ca59d611d5932eee624965ac317e4607b94807a,2234.3007390499115,False,click,tone_or_word,53365,[],choice-response,Musical Tones,636e065bbae6d6e5860db41b,2022-11-11 03:22:51-05:00,debrief3,53368,423,Tone_word_debrief,Tone,97d8a,EXP8c
17,pass,6345b7f49677d36bd07c5a10,EXP8c_JF,0,97d8a73ec6fa1777658307bb0ca59d611d5932eee624965ac317e4607b94807a,2234.3007390499115,,keypress,TxRsp,86072,,text-response,"I felt that the sound produced was more characteristic of a musical tone rather than being similar to the words ""lab"" or ""lap"" because I could not deduce the ending of the tones with ""b"" or ""p"", but rather how long the note was and how abrupt it ended",636e065bbae6d6e5860db41b,2022-11-11 03:22:51-05:00,debrief4,86075,424,Tone_word_debrief,Tone,97d8a,EXP8c
18,pass,6345b7f49677d36bd07c5a10,EXP8c_JF,0,779faeb88f323f6f9ba4255060311b69993e3715d07a28992c8c7a7867a8274f,2364.948704004288,False,click,tone_or_word,8514,[],choice-response,Musical Tones,636e065bbae6d6e5860db41b,2022-11-11 03:22:51-05:00,debrief3,8515,423,Tone_word_debrief,Tone,779fa,EXP8c
19,pass,6345b7f49677d36bd07c5a10,EXP8c_JF,0,779faeb88f323f6f9ba4255060311b69993e3715d07a28992c8c7a7867a8274f,2364.948704004288,,keypress,TxRsp,50881,,text-response,to be honest they sounded just like some harmonics. It got difficult to think about the word rather than just the sound it was making,636e065bbae6d6e5860db41b,2022-11-11 03:22:51-05:00,debrief4,50884,424,Tone_word_debrief,Tone,779fa,EXP8c
20,pass,6345b7f49677d36bd07c5a10,EXP8c_JF,0,dae9aceb0e98d540c140664a8feee52ddf1d97a2bdade3dae6203ed17ef97043,2279.9944670200352,False,click,tone_or_word,9834,[],choice-response,Musical Tones,636e065bbae6d6e5860db41b,2022-11-11 03:22:51-05:00,debrief3,9837,423,Tone_word_debrief,Tone,dae9a,EXP8c
21,pass,6345b7f49677d36bd07c5a10,EXP8c_JF,0,dae9aceb0e98d540c140664a8feee52ddf1d97a2bdade3dae6203ed17ef97043,2279.9944670200352,,keypress,TxRsp,35764,,text-response,"I did not feel like the musical tones sounded anything like the words ""lap"" or ""lab.""",636e065bbae6d6e5860db41b,2022-11-11 03:22:51-05:00,debrief4,35766,424,Tone_word_debrief,Tone,dae9a,EXP8c
22,pass,6345b7f49677d36bd07c5a10,EXP8c_JF,0,f6891cba3990f2bd2240fb7c655cd3ef76a8cc16190db1353b48d927b42ad7d6,2772.2966780662537,False,click,tone_or_word,17092,[],choice-response,Musical Tones,636e065bbae6d6e5860db41b,2022-11-11 03:22:51-05:00,debrief3,17097,423,Tone_word_debrief,Tone,f6891,EXP8c
23,pass,6345b7f49677d36bd07c5a10,EXP8c_JF,0,f6891cba3990f2bd2240fb7c655cd3ef76a8cc16190db1353b48d927b42ad7d6,2772.2966780662537,,keypress,TxRsp,37232,,text-response,I heard musical sounds because they sounded almost the same and could not tell the difference 90% of the time,636e065bbae6d6e5860db41b,2022-11-11 03:22:51-05:00,debrief4,37240,424,Tone_word_debrief,Tone,f6891,EXP8c
24,pass,6345b7f49677d36bd07c5a10,EXP8c_FJ,0,d88d8a68094ae74edd65606a5b22d26a5e38821c8d44da55848ecdf17f2e3159,2811.729108095169,False,click,tone_or_word,22497,[],choice-response,Lab or Lap,636e065bbae6d6e5860db41b,2022-11-11 03:22:51-05:00,debrief3,22500,423,Tone_word_debrief,Tone,d88d8,EXP8c
25,pass,6345b7f49677d36bd07c5a10,EXP8c_FJ,0,d88d8a68094ae74edd65606a5b22d26a5e38821c8d44da55848ecdf17f2e3159,2811.729108095169,,keypress,TxRsp,218644,,text-response,"For me it was a little mix of both but I went with lab and lap because I was able to hear them. In the priming section I couldn't hear the words at all but as I went and noticed a patterned I could hear the words in my head or at least structures of the word I would expect to hear when saying them. Did I hear ""lab"" or ""lap"" no but I could hear the structure of the word.",636e065bbae6d6e5860db41b,2022-11-11 03:22:51-05:00,debrief4,218650,424,Tone_word_debrief,Tone,d88d8,EXP8c
26,pass,6345b7f49677d36bd07c5a10,EXP8c_JF,0,1c0b6a5fa63175eb2f024083aea98426a17e77c2448ce443c2b2207c0bcbbbfb,2218.799772977829,False,click,tone_or_word,9072,[],choice-response,Musical Tones,636e065bbae6d6e5860db41b,2022-11-11 03:22:51-05:00,debrief3,9079,423,Tone_word_debrief,Tone,1c0b6,EXP8c
27,pass,6345b7f49677d36bd07c5a10,EXP8c_JF,0,1c0b6a5fa63175eb2f024083aea98426a17e77c2448ce443c2b2207c0bcbbbfb,2218.799772977829,,keypress,TxRsp,34296,,text-response,"perceive the sound as musical tones, did not associate it with word",636e065bbae6d6e5860db41b,2022-11-11 03:22:51-05:00,debrief4,34301,424,Tone_word_debrief,Tone,1c0b6,EXP8c
28,fail,6345b7f49677d36bd07c5a10,EXP8c_FJ,0,29762cf30a2a36f23c2c7b89c33303a0bea9b00473249f7611166defe9c381e8,1986.7972099781039,False,click,tone_or_word,8579,[],choice-response,Musical Tones,636e065bbae6d6e5860db41b,2022-11-11 03:22:51-05:00,debrief3,8583,435,Tone_word_debrief,Tone,29762,EXP8c
29,fail,6345b7f49677d36bd07c5a10,EXP8c_FJ,0,29762cf30a2a36f23c2c7b89c33303a0bea9b00473249f7611166defe9c381e8,1986.7972099781039,,keypress,TxRsp,46272,,text-response,"I could hear only musical tones. I tried to use the words when listening to the sound, but it didn't change how I heard it.",636e065bbae6d6e5860db41b,2022-11-11 03:22:51-05:00,debrief4,46277,436,Tone_word_debrief,Tone,29762,EXP8c
30,pass,6345b7f49677d36bd07c5a10,EXP8c_FJ,0,fdc6c34d775e742c9ca9c48f294a5ce2f067208df89b0d55a61c685286f915f2,2186.8200199604034,False,click,tone_or_word,16432,[],choice-response,Musical Tones,636e065bbae6d6e5860db41b,2022-11-11 03:22:51-05:00,debrief3,16440,423,Tone_word_debrief,Tone,fdc6c,EXP8c
31,pass,6345b7f49677d36bd07c5a10,EXP8c_FJ,0,fdc6c34d775e742c9ca9c48f294a5ce2f067208df89b0d55a61c685286f915f2,2186.8200199604034,,keypress,TxRsp,49441,,text-response,I heard the difference in the pitches of the tones. The lap was very abrupt and strong while the Lab was longer and smoother in a way.,636e065bbae6d6e5860db41b,2022-11-11 03:22:51-05:00,debrief4,49451,424,Tone_word_debrief,Tone,fdc6c,EXP8c
32,pass,6345b7f49677d36bd07c5a10,EXP8c_FJ,0,740035a65e1c8cd732a9c3082ec28ec91760235f5bbe554b7a1b2de3587b6c73,2122.4008150100713,False,click,tone_or_word,10397,[],choice-response,Musical Tones,636e065bbae6d6e5860db41b,2022-11-11 03:22:51-05:00,debrief3,10400,423,Tone_word_debrief,Tone,74003,EXP8c
33,pass,6345b7f49677d36bd07c5a10,EXP8c_FJ,0,740035a65e1c8cd732a9c3082ec28ec91760235f5bbe554b7a1b2de3587b6c73,2122.4008150100713,,keypress,TxRsp,8991,,text-response,I counted the time?,636e065bbae6d6e5860db41b,2022-11-11 03:22:51-05:00,debrief4,9093,424,Tone_word_debrief,Tone,74003,EXP8c
34,fail,6345b7f49677d36bd07c5a10,EXP8c_JF,0,55175ebec5cdfeb101e9864d17cf2f9518f7cd37b1d5847e01c4d61aa7729c62,1802.6070160865784,False,click,tone_or_word,4228,[],choice-response,Musical Tones,636e065bbae6d6e5860db41b,2022-11-11 03:22:51-05:00,debrief3,4231,435,Tone_word_debrief,Tone,55175,EXP8c
35,fail,6345b7f49677d36bd07c5a10,EXP8c_JF,0,55175ebec5cdfeb101e9864d17cf2f9518f7cd37b1d5847e01c4d61aa7729c62,1802.6070160865784,,keypress,TxRsp,8575,,text-response,Different timbres,636e065bbae6d6e5860db41b,2022-11-11 03:22:51-05:00,debrief4,8577,436,Tone_word_debrief,Tone,55175,EXP8c
36,pass,6345b7f49677d36bd07c5a10,EXP8c_FJ,0,1695b9e78c265b76270d2041b4072bf3c48bde5b7e5a3ea2fd71d5ca549bdcbd,2870.1440460681915,False,click,tone_or_word,13487,[],choice-response,Musical Tones,636e065bbae6d6e5860db41b,2022-11-11 03:22:51-05:00,debrief3,13493,423,Tone_word_debrief,Tone,1695b,EXP8c
37,pass,6345b7f49677d36bd07c5a10,EXP8c_FJ,0,1695b9e78c265b76270d2041b4072bf3c48bde5b7e5a3ea2fd71d5ca549bdcbd,2870.1440460681915,,keypress,TxRsp,72119,,text-response,Hearing the dings and then having to choose what word I heard made it feel like I was hearing more musical tones because the dings were happening in a rhythm.,636e065bbae6d6e5860db41b,2022-11-11 03:22:51-05:00,debrief4,72126,424,Tone_word_debrief,Tone,1695b,EXP8c
38,pass,6345b7f49677d36bd07c5a10,EXP8c_FJ,0,d8ba9ec3df48afaa5c09730466e0c075bbc75250ebe1186dd84acb7acf7225b6,5259.391983985901,False,click,tone_or_word,24791,[],choice-response,Lab or Lap,636e065bbae6d6e5860db41b,2022-11-11 03:22:51-05:00,debrief3,24796,423,Tone_word_debrief,Tone,d8ba9,EXP8c
39,pass,6345b7f49677d36bd07c5a10,EXP8c_FJ,0,d8ba9ec3df48afaa5c09730466e0c075bbc75250ebe1186dd84acb7acf7225b6,5259.391983985901,,keypress,TxRsp,130161,,text-response,I heard both lap and lab even when it started just feeling like noises. Each time I would answer I would get a feeling after hitting the button of either feeling okay with it or regretting it because I felt it was the other one. I still was hearing the words but I also wasn't.,636e065bbae6d6e5860db41b,2022-11-11 03:22:51-05:00,debrief4,130163,424,Tone_word_debrief,Tone,d8ba9,EXP8c
40,pass,6345b7f49677d36bd07c5a10,EXP8c_JF,0,ae3962fc4617f2dd3e13e81b09ead1567e154f4899d9cfe0fbd90e5a559e6c61,2743.999155044556,False,click,tone_or_word,17355,[],choice-response,Lab or Lap,636e065bbae6d6e5860db41b,2022-11-11 03:22:51-05:00,debrief3,17357,423,Tone_word_debrief,Tone,ae396,EXP8c
41,pass,6345b7f49677d36bd07c5a10,EXP8c_JF,0,ae3962fc4617f2dd3e13e81b09ead1567e154f4899d9cfe0fbd90e5a559e6c61,2743.999155044556,,keypress,TxRsp,139318,,text-response,"I didn't really perceive the sound as musical tones because I was told to think in context of lab or lap. I also feel like I was listening more for what I perceived as a ""hold"" in the lab sound that I didn't perceive in the lap sound, a result of me thinking about someone saying lab and lap.",636e065bbae6d6e5860db41b,2022-11-11 03:22:51-05:00,debrief4,139319,424,Tone_word_debrief,Tone,ae396,EXP8c
42,fail,6345b7f49677d36bd07c5a10,EXP8c_JF,0,9ca859fc3b8f17bff91497b554e64af13e9ee123a2819b5099d74d990ef9f752,1792.955758810043,False,click,tone_or_word,9504,[],choice-response,Lab or Lap,636e065bbae6d6e5860db41b,2022-11-11 03:22:51-05:00,debrief3,9506,435,Tone_word_debrief,Tone,9ca85,EXP8c
43,fail,6345b7f49677d36bd07c5a10,EXP8c_JF,0,9ca859fc3b8f17bff91497b554e64af13e9ee123a2819b5099d74d990ef9f752,1792.955758810043,,keypress,TxRsp,11659,,text-response,I could hear the sound at the end,636e065bbae6d6e5860db41b,2022-11-11 03:22:51-05:00,debrief4,11661,436,Tone_word_debrief,Tone,9ca85,EXP8c
44,fail,6345b7f49677d36bd07c5a10,EXP8c_JF,0,70337e053d6280ba5f298a7ce56e89b1150ee9db13fe56b8cc0dac046ffe6885,3496.01327419281,False,click,tone_or_word,11361,[],choice-response,Musical Tones,636e065bbae6d6e5860db41b,2022-11-11 03:22:51-05:00,debrief3,11365,435,Tone_word_debrief,Tone,70337,EXP8c
45,fail,6345b7f49677d36bd07c5a10,EXP8c_JF,0,70337e053d6280ba5f298a7ce56e89b1150ee9db13fe56b8cc0dac046ffe6885,3496.01327419281,,keypress,TxRsp,94454,,text-response,"It was difficult for me to decipher words from the played sound. Instead of sounding like words, the noise in the experiment was more like a melody. The longer melody to me meant the word was ""lab"" while the shorter sounding melody meant the word was ""lap"".",636e065bbae6d6e5860db41b,2022-11-11 03:22:51-05:00,debrief4,94457,436,Tone_word_debrief,Tone,70337,EXP8c
46,pass,6345b7f49677d36bd07c5a10,EXP8c_FJ,0,c871691bd604e6bac1b82f1b3d1136ad0e530ea0d1f58b20793b69fb921f780e,2658.9851770401,False,click,tone_or_word,10257,[],choice-response,Musical Tones,636e065bbae6d6e5860db41b,2022-11-11 03:22:51-05:00,debrief3,10259,423,Tone_word_debrief,Tone,c8716,EXP8c
47,pass,6345b7f49677d36bd07c5a10,EXP8c_FJ,0,c871691bd604e6bac1b82f1b3d1136ad0e530ea0d1f58b20793b69fb921f780e,2658.9851770401,,keypress,TxRsp,37582,,text-response,I chose as musical tone since they never felt as if lap or lab were being said.,636e065bbae6d6e5860db41b,2022-11-11 03:22:51-05:00,debrief4,37598,424,Tone_word_debrief,Tone,c8716,EXP8c
48,pass,6345b7f49677d36bd07c5a10,EXP8c_FJ,0,93732dc552366b93f9c8cb33a027ebf090fe6ce3a6e56c0573cf50f9fba7888d,2522.93197107315,False,click,tone_or_word,12963,[],choice-response,Musical Tones,636e065bbae6d6e5860db41b,2022-11-11 03:22:51-05:00,debrief3,12966,423,Tone_word_debrief,Tone,93732,EXP8c
49,pass,6345b7f49677d36bd07c5a10,EXP8c_FJ,0,93732dc552366b93f9c8cb33a027ebf090fe6ce3a6e56c0573cf50f9fba7888d,2522.93197107315,,keypress,TxRsp,53443,,text-response,The musical tone I would heard would help my brain associate lap with a harsher stop and lab with a more rounded ending.,636e065bbae6d6e5860db41b,2022-11-11 03:22:51-05:00,debrief4,53445,424,Tone_word_debrief,Tone,93732,EXP8c
50,pass,6345b7f49677d36bd07c5a10,EXP8c_FJ,0,b902b68c2506df1ee87431e747e6079ae032b7d23fc9657dec64336781af87f2,1802.500283956528,False,click,tone_or_word,11046,[],choice-response,Musical Tones,636e065bbae6d6e5860db41b,2022-11-11 03:22:51-05:00,debrief3,11049,423,Tone_word_debrief,Tone,b902b,EXP8c
51,pass,6345b7f49677d36bd07c5a10,EXP8c_FJ,0,b902b68c2506df1ee87431e747e6079ae032b7d23fc9657dec64336781af87f2,1802.500283956528,,keypress,TxRsp,38613,,text-response,"I didn't hear lab or lap so my brain listen to the length and lab seemed to be a longer tone, while lap was very quick",636e065bbae6d6e5860db41b,2022-11-11 03:22:51-05:00,debrief4,38618,424,Tone_word_debrief,Tone,b902b,EXP8c
52,pass,6345b7f49677d36bd07c5a10,EXP8c_JF,0,0e2a554e8625e35ca934bd8c2a3853ea7e4c45fc9ee67fdb9daefbbebe2e8669,2840.900662899017,False,click,tone_or_word,9296,[],choice-response,Lab or Lap,636e065bbae6d6e5860db41b,2022-11-11 03:22:51-05:00,debrief3,9299,423,Tone_word_debrief,Tone,0e2a5,EXP8c
53,pass,6345b7f49677d36bd07c5a10,EXP8c_JF,0,0e2a554e8625e35ca934bd8c2a3853ea7e4c45fc9ee67fdb9daefbbebe2e8669,2840.900662899017,,keypress,TxRsp,92338,,text-response,"Like I mentioned before, 'lab' had a longer beep whereas 'lap' had a shorter beep, and I associated the varying length with how someone would say the different words respectively.",636e065bbae6d6e5860db41b,2022-11-11 03:22:51-05:00,debrief4,92341,424,Tone_word_debrief,Tone,0e2a5,EXP8c
54,pass,6345b7f49677d36bd07c5a10,EXP8c_FJ,0,75a23d8525dc843ad29fe16c7474f6bdbd18f1bd25f8f5dc51bf477cf3a80300,1989.778632879257,False,click,tone_or_word,10730,[],choice-response,Musical Tones,636e065bbae6d6e5860db41b,2022-11-11 03:22:51-05:00,debrief3,10732,423,Tone_word_debrief,Tone,75a23,EXP8c
55,pass,6345b7f49677d36bd07c5a10,EXP8c_FJ,0,75a23d8525dc843ad29fe16c7474f6bdbd18f1bd25f8f5dc51bf477cf3a80300,1989.778632879257,,keypress,TxRsp,47760,,text-response,"I never heard any enunciation of the actual words, so they sounded a lot more to me like different musical tones (which in part related to the way Lap and Lab sound when said out loud)",636e065bbae6d6e5860db41b,2022-11-11 03:22:51-05:00,debrief4,47763,424,Tone_word_debrief,Tone,75a23,EXP8c
56,pass,6345b7f49677d36bd07c5a10,EXP8c_JF,0,d9664d1924243e84490b1f9d8b6747aac071af5c20914af34c6003a97b857a51,3043.088893175125,False,click,tone_or_word,5673,[],choice-response,Musical Tones,636e065bbae6d6e5860db41b,2022-11-11 03:22:51-05:00,debrief3,5676,423,Tone_word_debrief,Tone,d9664,EXP8c
57,pass,6345b7f49677d36bd07c5a10,EXP8c_JF,0,d9664d1924243e84490b1f9d8b6747aac071af5c20914af34c6003a97b857a51,3043.088893175125,,keypress,TxRsp,16660,,text-response,I felt long sound was lab and short sound was lap,636e065bbae6d6e5860db41b,2022-11-11 03:22:51-05:00,debrief4,16664,424,Tone_word_debrief,Tone,d9664,EXP8c
58,pass,6345b7f49677d36bd07c5a10,EXP8c_FJ,0,07d1127d35accfd10fa77125c2ebfcf09ac2d859d29a61d528ebcf8ea60b0f20,2254.012971878052,False,click,tone_or_word,7566,[],choice-response,Musical Tones,636e065bbae6d6e5860db41b,2022-11-11 03:22:51-05:00,debrief3,7570,423,Tone_word_debrief,Tone,07d11,EXP8c
59,pass,6345b7f49677d36bd07c5a10,EXP8c_FJ,0,07d1127d35accfd10fa77125c2ebfcf09ac2d859d29a61d528ebcf8ea60b0f20,2254.012971878052,,keypress,TxRsp,21079,,text-response,It just sounded more like musical tones.,636e065bbae6d6e5860db41b,2022-11-11 03:22:51-05:00,debrief4,21084,424,Tone_word_debrief,Tone,07d11,EXP8c
60,fail,6345b7f49677d36bd07c5a10,EXP8c_JF,0,fa58eeb09beb5b6732a8cf0c443c87a3d19f581b47f2d7983228a42646882af3,2254.8002779483795,False,click,tone_or_word,17247,[],choice-response,Lab or Lap,636e065bbae6d6e5860db41b,2022-11-11 03:22:51-05:00,debrief3,17249,435,Tone_word_debrief,Tone,fa58e,EXP8c
61,fail,6345b7f49677d36bd07c5a10,EXP8c_JF,0,fa58eeb09beb5b6732a8cf0c443c87a3d19f581b47f2d7983228a42646882af3,2254.8002779483795,,keypress,TxRsp,68172,,text-response,"I couldn't really percieve the sound. I mostly just ""felt"" the sound as being lab although it sounded the same every time without knowing if I selected correctly or incorrectly.",636e065bbae6d6e5860db41b,2022-11-11 03:22:51-05:00,debrief4,68219,436,Tone_word_debrief,Tone,fa58e,EXP8c
62,pass,6345b7f49677d36bd07c5a10,EXP8c_FJ,0,94aef9f1165943f8855355c5cd11702ad3b7a493a7d4cae2429fa47cb1373d64,1948.408194065094,False,click,tone_or_word,7846,[],choice-response,Lab or Lap,636e065bbae6d6e5860db41b,2022-11-11 03:22:51-05:00,debrief3,7850,423,Tone_word_debrief,Tone,94aef,EXP8c
63,pass,6345b7f49677d36bd07c5a10,EXP8c_FJ,0,94aef9f1165943f8855355c5cd11702ad3b7a493a7d4cae2429fa47cb1373d64,1948.408194065094,,keypress,TxRsp,40416,,text-response,I could infer from the length whether it was lap or lab,636e065bbae6d6e5860db41b,2022-11-11 03:22:51-05:00,debrief4,40422,424,Tone_word_debrief,Tone,94aef,EXP8c
64,pass,6345b7f49677d36bd07c5a10,EXP8c_FJ,0,cbea07ee944e05e13c351ed430b8d6dc4ef2c8fbc020eebc889eac7d4010d9b3,1916.5606899261481,False,click,tone_or_word,10258,[],choice-response,Lab or Lap,635300ef7f3ee915ba688e53,2022-10-21 16:28:31-04:00,debrief3,10263,423,Tone_word_debrief,Tone,cbea0,EXP8c
65,pass,6345b7f49677d36bd07c5a10,EXP8c_FJ,0,cbea07ee944e05e13c351ed430b8d6dc4ef2c8fbc020eebc889eac7d4010d9b3,1916.5606899261481,,keypress,TxRsp,31810,,text-response,"could only tell b vs p based on duration of last part of sound, so that's what i used to tell the difference although it was hard",635300ef7f3ee915ba688e53,2022-10-21 16:28:31-04:00,debrief4,32158,424,Tone_word_debrief,Tone,cbea0,EXP8c
66,pass,6345b7f49677d36bd07c5a10,EXP8c_JF,0,bb761133aff4f74fbe2b159086ec3f722b068f04001a23ad9f33f62a7e11f67e,2027.0975630283358,False,click,tone_or_word,11666,[],choice-response,Musical Tones,635300ef7f3ee915ba688e53,2022-10-21 16:28:31-04:00,debrief3,11669,423,Tone_word_debrief,Tone,bb761,EXP8c
67,pass,6345b7f49677d36bd07c5a10,EXP8c_JF,0,bb761133aff4f74fbe2b159086ec3f722b068f04001a23ad9f33f62a7e11f67e,2027.0975630283358,,keypress,TxRsp,28501,,text-response,I feel one musical tone is longer and one is shorter,635300ef7f3ee915ba688e53,2022-10-21 16:28:31-04:00,debrief4,28599,424,Tone_word_debrief,Tone,bb761,EXP8c
68,pass,6345b7f49677d36bd07c5a10,EXP8c_JF,0,5f8f2a5d83be0ebd0fea29fa3872bd6d112bfe4a946c91d72a472e673434da24,2126.461858987808,False,click,tone_or_word,16717,[],choice-response,Musical Tones,635300ef7f3ee915ba688e53,2022-10-21 16:28:31-04:00,debrief3,16719,423,Tone_word_debrief,Tone,5f8f2,EXP8c
69,pass,6345b7f49677d36bd07c5a10,EXP8c_JF,0,5f8f2a5d83be0ebd0fea29fa3872bd6d112bfe4a946c91d72a472e673434da24,2126.461858987808,,keypress,TxRsp,48635,,text-response,"they were musical tones to me, one of the sounded slightly longer and more smooth",635300ef7f3ee915ba688e53,2022-10-21 16:28:31-04:00,debrief4,48640,424,Tone_word_debrief,Tone,5f8f2,EXP8c
70,pass,6345b7f49677d36bd07c5a10,EXP8c_JF,0,8560adbd5e45d7aff7e037640491dcb9939a3ead0fa5cd00f08bd926c50f7d6d,2400.798967123032,False,click,tone_or_word,7172,[],choice-response,Musical Tones,635300ef7f3ee915ba688e53,2022-10-21 16:28:31-04:00,debrief3,7174,423,Tone_word_debrief,Tone,8560a,EXP8c
71,pass,6345b7f49677d36bd07c5a10,EXP8c_JF,0,8560adbd5e45d7aff7e037640491dcb9939a3ead0fa5cd00f08bd926c50f7d6d,2400.798967123032,,keypress,TxRsp,21907,,text-response,I felt the inflection of the tones was different and couldn’t hear the word,635300ef7f3ee915ba688e53,2022-10-21 16:28:31-04:00,debrief4,21910,424,Tone_word_debrief,Tone,8560a,EXP8c
72,fail,6345b7f49677d36bd07c5a10,EXP8c_FJ,0,400749b5a7ce4d599efdbda155b0d943fe8ac724301bdd9440ff5de22967df1f,2223.1236808300023,False,click,tone_or_word,8494,[],choice-response,Lab or Lap,635300ef7f3ee915ba688e53,2022-10-21 16:28:31-04:00,debrief3,8496,435,Tone_word_debrief,Tone,40074,EXP8c
73,fail,6345b7f49677d36bd07c5a10,EXP8c_FJ,0,400749b5a7ce4d599efdbda155b0d943fe8ac724301bdd9440ff5de22967df1f,2223.1236808300023,,keypress,TxRsp,28010,,text-response,I would be able to switch if my mind was thinking of the word lap or lab and I would pick the one I was thinking of.,635300ef7f3ee915ba688e53,2022-10-21 16:28:31-04:00,debrief4,28012,436,Tone_word_debrief,Tone,40074,EXP8c
74,pass,6345b7f49677d36bd07c5a10,EXP8c_FJ,0,49aecf7a0752f02c4023c7a7eb2e4aba80e357112fb1df6c285a7ade893a0428,2054.7306561470027,False,click,tone_or_word,1960,[],choice-response,Lab or Lap,635300ef7f3ee915ba688e53,2022-10-21 16:28:31-04:00,debrief3,1963,423,Tone_word_debrief,Tone,49aec,EXP8c
75,pass,6345b7f49677d36bd07c5a10,EXP8c_FJ,0,49aecf7a0752f02c4023c7a7eb2e4aba80e357112fb1df6c285a7ade893a0428,2054.7306561470027,,keypress,TxRsp,43157,,text-response,"lab vs lap. if the ending had a ""hard"" ending, I said it was lap, vs. soft I put lab",635300ef7f3ee915ba688e53,2022-10-21 16:28:31-04:00,debrief4,43160,424,Tone_word_debrief,Tone,49aec,EXP8c
76,pass,6345b7f49677d36bd07c5a10,EXP8c_FJ,0,aaf24b1f8783b235cdadfb3f4f81b4b0932a967f19fe18cebdc388b3e7eb18f3,2121.661278963089,False,click,tone_or_word,18637,[],choice-response,Musical Tones,635300ef7f3ee915ba688e53,2022-10-21 16:28:31-04:00,debrief3,18640,423,Tone_word_debrief,Tone,aaf24,EXP8c
77,pass,6345b7f49677d36bd07c5a10,EXP8c_FJ,0,aaf24b1f8783b235cdadfb3f4f81b4b0932a967f19fe18cebdc388b3e7eb18f3,2121.661278963089,,keypress,TxRsp,59712,,text-response,I percieved lap as a short as a sharp sound while lab was percieved as curved and drawn out,635300ef7f3ee915ba688e53,2022-10-21 16:28:31-04:00,debrief4,59715,424,Tone_word_debrief,Tone,aaf24,EXP8c
78,pass,6345b7f49677d36bd07c5a10,EXP8c_FJ,0,558e8bcc178ece1d62f932c5209cb869e88a2f89e0a60e4a366ca069adedbc1b,1988.7800397872925,False,click,tone_or_word,8737,[],choice-response,Musical Tones,635300ef7f3ee915ba688e53,2022-10-21 16:28:31-04:00,debrief3,8739,423,Tone_word_debrief,Tone,558e8,EXP8c
79,pass,6345b7f49677d36bd07c5a10,EXP8c_FJ,0,558e8bcc178ece1d62f932c5209cb869e88a2f89e0a60e4a366ca069adedbc1b,1988.7800397872925,,keypress,TxRsp,28819,,text-response,"They didnt have any word tied to them, they only sounded like 2 different tones that had different lengths.",635300ef7f3ee915ba688e53,2022-10-21 16:28:31-04:00,debrief4,28821,424,Tone_word_debrief,Tone,558e8,EXP8c
80,pass,6345b7f49677d36bd07c5a10,EXP8c_JF,0,9e53171b0dcf119a44e8637c3196bade40263a7917d798a2053024ea80761c9c,2208.810430049896,False,click,tone_or_word,8419,[],choice-response,Musical Tones,635300ef7f3ee915ba688e53,2022-10-21 16:28:31-04:00,debrief3,8423,423,Tone_word_debrief,Tone,9e531,EXP8c
81,pass,6345b7f49677d36bd07c5a10,EXP8c_JF,0,9e53171b0dcf119a44e8637c3196bade40263a7917d798a2053024ea80761c9c,2208.810430049896,,keypress,TxRsp,13226,,text-response,It didn't sound like lab or lap to me.,635300ef7f3ee915ba688e53,2022-10-21 16:28:31-04:00,debrief4,13229,424,Tone_word_debrief,Tone,9e531,EXP8c
82,pass,6345b7f49677d36bd07c5a10,EXP8c_JF,0,d759bb063270724dc3273a57045ddd551a118d960954f22c52a332a9385aafbc,1822.4353811740875,False,click,tone_or_word,8596,[],choice-response,Musical Tones,635300ef7f3ee915ba688e53,2022-10-21 16:28:31-04:00,debrief3,8602,423,Tone_word_debrief,Tone,d759b,EXP8c
83,pass,6345b7f49677d36bd07c5a10,EXP8c_JF,0,d759bb063270724dc3273a57045ddd551a118d960954f22c52a332a9385aafbc,1822.4353811740875,,keypress,TxRsp,28161,,text-response,"The sounds did not feel like they were ""shaped"" like lab or lap, despite them being slightly different",635300ef7f3ee915ba688e53,2022-10-21 16:28:31-04:00,debrief4,28164,424,Tone_word_debrief,Tone,d759b,EXP8c
84,fail,6345b7f49677d36bd07c5a10,EXP8c_FJ,0,62ec769f5695a6d4d64df6125090ef409ee5c1e9747c0ac161b7559c7ed20e89,2301.080215930939,False,click,tone_or_word,12780,[],choice-response,Lab or Lap,635300ef7f3ee915ba688e53,2022-10-21 16:28:31-04:00,debrief3,12782,435,Tone_word_debrief,Tone,62ec7,EXP8c
85,fail,6345b7f49677d36bd07c5a10,EXP8c_FJ,0,62ec769f5695a6d4d64df6125090ef409ee5c1e9747c0ac161b7559c7ed20e89,2301.080215930939,,keypress,TxRsp,13601,,text-response,that is what you were asking us to hear,635300ef7f3ee915ba688e53,2022-10-21 16:28:31-04:00,debrief4,13604,436,Tone_word_debrief,Tone,62ec7,EXP8c
86,fail,6345b7f49677d36bd07c5a10,EXP8c_FJ,0,58ba4d4fb1eed587db32b5754242b038c92f34334157737661797d16a4d46018,2657.408222913742,False,click,tone_or_word,11334,[],choice-response,Musical Tones,635300ef7f3ee915ba688e53,2022-10-21 16:28:31-04:00,debrief3,11337,435,Tone_word_debrief,Tone,58ba4,EXP8c
87,fail,6345b7f49677d36bd07c5a10,EXP8c_FJ,0,58ba4d4fb1eed587db32b5754242b038c92f34334157737661797d16a4d46018,2657.408222913742,,keypress,TxRsp,110349,,text-response,"I heard them more as musical tones, rather than as ""lab"" and ""lap."" In other words, I relied on the length of the musical tones to distinguish whether they were ""lab,"" a longer note,  or ""lap,"" the shorter note.",635300ef7f3ee915ba688e53,2022-10-21 16:28:31-04:00,debrief4,110351,436,Tone_word_debrief,Tone,58ba4,EXP8c
88,pass,6345b7f49677d36bd07c5a10,EXP8c_JF,0,0f82e5f481b7e8eb65f921f60343be72d36564ecf26c542529e4cb64d010c09c,2108.23991894722,False,click,tone_or_word,11327,[],choice-response,Musical Tones,635300ef7f3ee915ba688e53,2022-10-21 16:28:31-04:00,debrief3,11330,423,Tone_word_debrief,Tone,0f82e,EXP8c
89,pass,6345b7f49677d36bd07c5a10,EXP8c_JF,0,0f82e5f481b7e8eb65f921f60343be72d36564ecf26c542529e4cb64d010c09c,2108.23991894722,,keypress,TxRsp,55062,,text-response,I personally think the 'a' in lab and lap sound the same especially when I say them out loud so I differentiated them through tones instead.,635300ef7f3ee915ba688e53,2022-10-21 16:28:31-04:00,debrief4,55064,424,Tone_word_debrief,Tone,0f82e,EXP8c
90,pass,6345b7f49677d36bd07c5a10,EXP8c_JF,0,d816b5e454def41224c9ce03802e71f41efc0ba91a3491387cc3043eaea74ae4,2146.5496218204503,False,click,tone_or_word,7204,[],choice-response,Musical Tones,635300ef7f3ee915ba688e53,2022-10-21 16:28:31-04:00,debrief3,7208,423,Tone_word_debrief,Tone,d816b,EXP8c
91,pass,6345b7f49677d36bd07c5a10,EXP8c_JF,0,d816b5e454def41224c9ce03802e71f41efc0ba91a3491387cc3043eaea74ae4,2146.5496218204503,,keypress,TxRsp,40360,,text-response,"I could not eel the sound as either of the words, they were just musical tones that had a slight difference",635300ef7f3ee915ba688e53,2022-10-21 16:28:31-04:00,debrief4,40364,424,Tone_word_debrief,Tone,d816b,EXP8c
92,fail,6345b7f49677d36bd07c5a10,EXP8c_FJ,0,b85ff278f5b1092cc490071467366da4bef3b2773eab92ace46503c40a6c4ae2,2644.362780094147,False,click,tone_or_word,12054,[],choice-response,Musical Tones,635300ef7f3ee915ba688e53,2022-10-21 16:28:31-04:00,debrief3,12059,435,Tone_word_debrief,Tone,b85ff,EXP8c
93,fail,6345b7f49677d36bd07c5a10,EXP8c_FJ,0,b85ff278f5b1092cc490071467366da4bef3b2773eab92ace46503c40a6c4ae2,2644.362780094147,,keypress,TxRsp,47808,,text-response,To me it was solely musical tones. There was a beat but i did not feel the sounds as being lab and lap.,635300ef7f3ee915ba688e53,2022-10-21 16:28:31-04:00,debrief4,47814,436,Tone_word_debrief,Tone,b85ff,EXP8c
94,pass,6345b7f49677d36bd07c5a10,EXP8c_JF,0,d88eb8a2627f3bce312c623412f3982e37beb1c029ad5f29ddeeafec917e2f99,2387.0976469516754,False,click,tone_or_word,17099,[],choice-response,Musical Tones,635300ef7f3ee915ba688e53,2022-10-21 16:28:31-04:00,debrief3,17103,423,Tone_word_debrief,Tone,d88eb,EXP8c
95,pass,6345b7f49677d36bd07c5a10,EXP8c_JF,0,d88eb8a2627f3bce312c623412f3982e37beb1c029ad5f29ddeeafec917e2f99,2387.0976469516754,,keypress,TxRsp,35079,,text-response,It sounds like musical tones and with regular rhythm,635300ef7f3ee915ba688e53,2022-10-21 16:28:31-04:00,debrief4,35178,424,Tone_word_debrief,Tone,d88eb,EXP8c
96,fail,6345b7f49677d36bd07c5a10,EXP8c_JF,0,489cac8395433cc89254b8ae5ec25661901a8d86248b9359affbcae918b3a5f5,2382.22069311142,False,click,tone_or_word,9237,[],choice-response,Musical Tones,635300ef7f3ee915ba688e53,2022-10-21 16:28:31-04:00,debrief3,9248,435,Tone_word_debrief,Tone,489ca,EXP8c
97,fail,6345b7f49677d36bd07c5a10,EXP8c_JF,0,489cac8395433cc89254b8ae5ec25661901a8d86248b9359affbcae918b3a5f5,2382.22069311142,,keypress,TxRsp,39610,,text-response,"I heard musical tones that sounded like they were reverberating the words lab and lap, but eventually they stopped sounding like music tones, and more like words.",635300ef7f3ee915ba688e53,2022-10-21 16:28:31-04:00,debrief4,39619,436,Tone_word_debrief,Tone,489ca,EXP8c
98,fail,6345b7f49677d36bd07c5a10,EXP8c_JF,0,85f0917e33356f57e5a73060188a4563d62ae2a75824b1943bba1d8a7020bf02,2507.4692640304565,False,click,tone_or_word,6097,[],choice-response,Musical Tones,635300ef7f3ee915ba688e53,2022-10-21 16:28:31-04:00,debrief3,6100,435,Tone_word_debrief,Tone,85f09,EXP8c
99,fail,6345b7f49677d36bd07c5a10,EXP8c_JF,0,85f0917e33356f57e5a73060188a4563d62ae2a75824b1943bba1d8a7020bf02,2507.4692640304565,,keypress,TxRsp,14389,,text-response,calm,635300ef7f3ee915ba688e53,2022-10-21 16:28:31-04:00,debrief4,14391,436,Tone_word_debrief,Tone,85f09,EXP8c
100,pass,6345b7f49677d36bd07c5a10,EXP8c_FJ,0,9c7875ebdf5b71a709e04953b5a7701da5f8278ac48d8e488ac02a532894e9fe,2369.3102388381963,False,click,tone_or_word,7133,[],choice-response,Musical Tones,635300ef7f3ee915ba688e53,2022-10-21 16:28:31-04:00,debrief3,7136,423,Tone_word_debrief,Tone,9c787,EXP8c
101,pass,6345b7f49677d36bd07c5a10,EXP8c_FJ,0,9c7875ebdf5b71a709e04953b5a7701da5f8278ac48d8e488ac02a532894e9fe,2369.3102388381963,,keypress,TxRsp,25198,,text-response,I did not hear any words. I just heard a tones that sounded slightly different from each other but not enough to differentiate,635300ef7f3ee915ba688e53,2022-10-21 16:28:31-04:00,debrief4,25202,424,Tone_word_debrief,Tone,9c787,EXP8c
102,fail,6345b7f49677d36bd07c5a10,EXP8c_FJ,0,6ce60adeb6e9b877826599ab39c3b088ce2c62e9fc1673405b71b597937b8606,2094.095845937729,False,click,tone_or_word,13782,[],choice-response,Musical Tones,635300ef7f3ee915ba688e53,2022-10-21 16:28:31-04:00,debrief3,13817,435,Tone_word_debrief,Tone,6ce60,EXP8c
103,fail,6345b7f49677d36bd07c5a10,EXP8c_FJ,0,6ce60adeb6e9b877826599ab39c3b088ce2c62e9fc1673405b71b597937b8606,2094.095845937729,,keypress,TxRsp,25277,,text-response,i cant recognize the lab and lap difference,635300ef7f3ee915ba688e53,2022-10-21 16:28:31-04:00,debrief4,25297,436,Tone_word_debrief,Tone,6ce60,EXP8c
104,pass,6345b7f49677d36bd07c5a10,EXP8c_FJ,0,0ed6d427ac8c7ce9f22041ff8d41da728aa914d05f5769ddc67da2ec0287e1e0,2158.851804971695,False,click,tone_or_word,11379,[],choice-response,Lab or Lap,635300ef7f3ee915ba688e53,2022-10-21 16:28:31-04:00,debrief3,11382,423,Tone_word_debrief,Tone,0ed6d,EXP8c
105,pass,6345b7f49677d36bd07c5a10,EXP8c_FJ,0,0ed6d427ac8c7ce9f22041ff8d41da728aa914d05f5769ddc67da2ec0287e1e0,2158.851804971695,,keypress,TxRsp,68584,,text-response,"The tone that was played for lab was longer as the way you would pronounce the word lab, elongating the 'a' vowel while the tone for lap was very short and almost felt like it was being cut in half in comparison to the sound for lab.",635300ef7f3ee915ba688e53,2022-10-21 16:28:31-04:00,debrief4,68592,424,Tone_word_debrief,Tone,0ed6d,EXP8c
106,fail,6345b7f49677d36bd07c5a10,EXP8c_FJ,0,69689ab5747708a7e2cffcfab6f3472c0c5dc7aed9e378eed308392ef2e0de4b,3859.4194388389587,False,click,tone_or_word,25319,[],choice-response,Musical Tones,635300ef7f3ee915ba688e53,2022-10-21 16:28:31-04:00,debrief3,25328,435,Tone_word_debrief,Tone,69689,EXP8c
107,fail,6345b7f49677d36bd07c5a10,EXP8c_FJ,0,69689ab5747708a7e2cffcfab6f3472c0c5dc7aed9e378eed308392ef2e0de4b,3859.4194388389587,,keypress,TxRsp,70975,,text-response,"I thought that the words were musical tones, because lap and lab were hard to differentiate from each other.",635300ef7f3ee915ba688e53,2022-10-21 16:28:31-04:00,debrief4,70980,436,Tone_word_debrief,Tone,69689,EXP8c
108,pass,6345b7f49677d36bd07c5a10,EXP8c_FJ,0,4e6ded33c7278ac89e58ec09ff17def71b27ae245924593c1b465befae3dc9a7,6468.454480171204,False,click,tone_or_word,10720,[],choice-response,Lab or Lap,635300ef7f3ee915ba688e53,2022-10-21 16:28:31-04:00,debrief3,10729,423,Tone_word_debrief,Tone,4e6de,EXP8c
109,pass,6345b7f49677d36bd07c5a10,EXP8c_FJ,0,4e6ded33c7278ac89e58ec09ff17def71b27ae245924593c1b465befae3dc9a7,6468.454480171204,,keypress,TxRsp,23527,,text-response,i tried to imagine someone saying the words,635300ef7f3ee915ba688e53,2022-10-21 16:28:31-04:00,debrief4,23538,424,Tone_word_debrief,Tone,4e6de,EXP8c
110,pass,6345b7f49677d36bd07c5a10,EXP8c_JF,0,085e4485dd0c49dd161bfce5917a7ec5d9475532efe0a0316aa01ae495c2994b,3571.066705942154,False,click,tone_or_word,10751,[],choice-response,Musical Tones,635300ef7f3ee915ba688e53,2022-10-21 16:28:31-04:00,debrief3,10760,423,Tone_word_debrief,Tone,085e4,EXP8c
111,pass,6345b7f49677d36bd07c5a10,EXP8c_JF,0,085e4485dd0c49dd161bfce5917a7ec5d9475532efe0a0316aa01ae495c2994b,3571.066705942154,,keypress,TxRsp,136648,,text-response,"I perceived them more as musical tones. There was a slight difference in length. ""Lab"" was longer than ""lap"", so I just associated the longer sound with ""lab"" and the shorter sound with ""lap"". I also pictured ""lab"" going in a ""U"" shape while ""lap"" sounded as if it was cutoff.",635300ef7f3ee915ba688e53,2022-10-21 16:28:31-04:00,debrief4,136654,424,Tone_word_debrief,Tone,085e4,EXP8c
112,pass,6345b7f49677d36bd07c5a10,EXP8c_JF,0,fb14735ec78516bcf9224e95bb990d51b802731caf3975701007e3c5ee6d2160,2598.5367031097408,False,click,tone_or_word,11511,[],choice-response,Musical Tones,635300ef7f3ee915ba688e53,2022-10-21 16:28:31-04:00,debrief3,11515,423,Tone_word_debrief,Tone,fb147,EXP8c
113,pass,6345b7f49677d36bd07c5a10,EXP8c_JF,0,fb14735ec78516bcf9224e95bb990d51b802731caf3975701007e3c5ee6d2160,2598.5367031097408,,keypress,TxRsp,69463,,text-response,"i couldn't identify any actual letter sounds, B I identify as a ""hard sound"" and p as a soft but the ending of the words when changed didn't have either of those",635300ef7f3ee915ba688e53,2022-10-21 16:28:31-04:00,debrief4,69467,424,Tone_word_debrief,Tone,fb147,EXP8c
114,pass,6345b7f49677d36bd07c5a10,EXP8c_JF,0,7effe65d9b27ee53921cf3c6cfd69f948dc9ee0e314bed846d803c7d5f8b6a11,2083.589346170425,False,click,tone_or_word,18374,[],choice-response,Musical Tones,635300ef7f3ee915ba688e53,2022-10-21 16:28:31-04:00,debrief3,18376,423,Tone_word_debrief,Tone,7effe,EXP8c
115,pass,6345b7f49677d36bd07c5a10,EXP8c_JF,0,7effe65d9b27ee53921cf3c6cfd69f948dc9ee0e314bed846d803c7d5f8b6a11,2083.589346170425,,keypress,TxRsp,39107,,text-response,I only head musical tones like a ding sound much nothing much to it aside from that.,635300ef7f3ee915ba688e53,2022-10-21 16:28:31-04:00,debrief4,39111,424,Tone_word_debrief,Tone,7effe,EXP8c
116,fail,6345b7f49677d36bd07c5a10,EXP8c_JF,0,c47ae907357c0d96088ae8da334ab4e99c1c15d21d18eaf81d6f834049d4f730,1984.801421880722,False,click,tone_or_word,5929,[],choice-response,Lab or Lap,635300ef7f3ee915ba688e53,2022-10-21 16:28:31-04:00,debrief3,5933,435,Tone_word_debrief,Tone,c47ae,EXP8c
117,fail,6345b7f49677d36bd07c5a10,EXP8c_JF,0,c47ae907357c0d96088ae8da334ab4e99c1c15d21d18eaf81d6f834049d4f730,1984.801421880722,,keypress,TxRsp,13374,,text-response,It sounded like it,635300ef7f3ee915ba688e53,2022-10-21 16:28:31-04:00,debrief4,13377,436,Tone_word_debrief,Tone,c47ae,EXP8c
118,pass,6345b7f49677d36bd07c5a10,EXP8c_JF,0,192b3a907a2c4043c328d842f35404d580ad136c37ce2712f201ae71dffb41c3,3303.1720399856567,False,click,tone_or_word,12794,[],choice-response,Musical Tones,635300ef7f3ee915ba688e53,2022-10-21 16:28:31-04:00,debrief3,12799,423,Tone_word_debrief,Tone,192b3,EXP8c
119,pass,6345b7f49677d36bd07c5a10,EXP8c_JF,0,192b3a907a2c4043c328d842f35404d580ad136c37ce2712f201ae71dffb41c3,3303.1720399856567,,keypress,TxRsp,31128,,text-response,"Lab sounded elongated 
Lap sounded short",635300ef7f3ee915ba688e53,2022-10-21 16:28:31-04:00,debrief4,31132,424,Tone_word_debrief,Tone,192b3,EXP8c
120,pass,6345b7f49677d36bd07c5a10,EXP8c_FJ,0,d900d587ba17a4760976e631843876a7e88556559b3229bd500eb36af82a8379,2466.3254969120026,False,click,tone_or_word,15191,[],choice-response,Musical Tones,635300ef7f3ee915ba688e53,2022-10-21 16:28:31-04:00,debrief3,15205,423,Tone_word_debrief,Tone,d900d,EXP8c
121,pass,6345b7f49677d36bd07c5a10,EXP8c_FJ,0,d900d587ba17a4760976e631843876a7e88556559b3229bd500eb36af82a8379,2466.3254969120026,,keypress,TxRsp,101894,,text-response,"I perceived them more as musical tones. In all honesty, I couldn't hear the distinction when I tried listening to the sounds as words, I couldn't pick apart the  'b' and the 'p'. Once I stopped trying to hear for that difference, I was able to get a different feel for the sounds.",635300ef7f3ee915ba688e53,2022-10-21 16:28:31-04:00,debrief4,101905,424,Tone_word_debrief,Tone,d900d,EXP8c
122,fail,6345b7f49677d36bd07c5a10,EXP8c_FJ,0,f767aee16df88d92f91268667aa6371f3c287c6f11f62c514e2aaa4eed0641a2,2548.335920095444,False,click,tone_or_word,10025,[],choice-response,Musical Tones,635300ef7f3ee915ba688e53,2022-10-21 16:28:31-04:00,debrief3,10028,435,Tone_word_debrief,Tone,f767a,EXP8c
123,fail,6345b7f49677d36bd07c5a10,EXP8c_FJ,0,f767aee16df88d92f91268667aa6371f3c287c6f11f62c514e2aaa4eed0641a2,2548.335920095444,,keypress,TxRsp,22982,,text-response,"To me, it just felt like tones. I could not really hear the word.",635300ef7f3ee915ba688e53,2022-10-21 16:28:31-04:00,debrief4,23082,436,Tone_word_debrief,Tone,f767a,EXP8c
124,pass,6345b7f49677d36bd07c5a10,EXP8c_FJ,0,c3d0d9c4b75573ef21fdfa98cde13a0127fd8bea0c15a0f707b4a737d90c3584,2060.9041941165924,False,click,tone_or_word,10840,[],choice-response,Musical Tones,63769574ee2f0792ad9a3641,2022-11-17 15:11:32-05:00,debrief3,10844,423,Tone_word_debrief,Tone,c3d0d,EXP8c
125,pass,6345b7f49677d36bd07c5a10,EXP8c_FJ,0,c3d0d9c4b75573ef21fdfa98cde13a0127fd8bea0c15a0f707b4a737d90c3584,2060.9041941165924,,keypress,TxRsp,80926,,text-response,"Personally, I really couldn't hear the words through the tone. Instead, I perceived lap as a shorter tone and lab as a longer tone. Although I didn't hear the words within the tone, I used the differences between both tones to relate them to their actual word.",63769574ee2f0792ad9a3641,2022-11-17 15:11:32-05:00,debrief4,80934,424,Tone_word_debrief,Tone,c3d0d,EXP8c
126,pass,6345b7f49677d36bd07c5a10,EXP8c_FJ,0,18b6b6f7dd80c51c627c149f626cf786ec19ea58f6d7a9b787978dc69d8a3238,2069.4884560108185,False,click,tone_or_word,6040,[],choice-response,Musical Tones,63769574ee2f0792ad9a3641,2022-11-17 15:11:32-05:00,debrief3,6050,423,Tone_word_debrief,Tone,18b6b,EXP8c
127,pass,6345b7f49677d36bd07c5a10,EXP8c_FJ,0,18b6b6f7dd80c51c627c149f626cf786ec19ea58f6d7a9b787978dc69d8a3238,2069.4884560108185,,keypress,TxRsp,91274,,text-response,Although i used criteria to differentiate the two its not the same criteria  i would use to normally do so,63769574ee2f0792ad9a3641,2022-11-17 15:11:32-05:00,debrief4,91283,424,Tone_word_debrief,Tone,18b6b,EXP8c
128,pass,6345b7f49677d36bd07c5a10,EXP8c_JF,0,a0bba3a05c6ee42ca61ef12556f3d77184d360111236283cda50f53017d94a46,2208.2248928546906,False,click,tone_or_word,6346,[],choice-response,Musical Tones,63769574ee2f0792ad9a3641,2022-11-17 15:11:32-05:00,debrief3,6419,423,Tone_word_debrief,Tone,a0bba,EXP8c
129,pass,6345b7f49677d36bd07c5a10,EXP8c_JF,0,a0bba3a05c6ee42ca61ef12556f3d77184d360111236283cda50f53017d94a46,2208.2248928546906,,keypress,TxRsp,33773,,text-response,"I did not hear lab or lap. It was musical tones, and I generated clues as to which sounds corresponded with lab or lap.",63769574ee2f0792ad9a3641,2022-11-17 15:11:32-05:00,debrief4,33816,424,Tone_word_debrief,Tone,a0bba,EXP8c
130,pass,6345b7f49677d36bd07c5a10,EXP8c_JF,0,8bacfbc9162f66d3b6e1b084cd745aef30c2909c5eea1bf3abb37b8aefab8c1c,2773.594545841217,False,click,tone_or_word,15137,[],choice-response,Musical Tones,63769574ee2f0792ad9a3641,2022-11-17 15:11:32-05:00,debrief3,15138,423,Tone_word_debrief,Tone,8bacf,EXP8c
131,pass,6345b7f49677d36bd07c5a10,EXP8c_JF,0,8bacfbc9162f66d3b6e1b084cd745aef30c2909c5eea1bf3abb37b8aefab8c1c,2773.594545841217,,keypress,TxRsp,93143,,text-response,"All sound I heard had nothing to do with lab or lap. The only thing I heard is beep or like the sound of a bell, and the way to differentiate is the length of the beeping sound",63769574ee2f0792ad9a3641,2022-11-17 15:11:32-05:00,debrief4,93144,424,Tone_word_debrief,Tone,8bacf,EXP8c
132,pass,6345b7f49677d36bd07c5a10,EXP8c_JF,0,4acd3a52431c954005e081bdeb12f13a1926ad1c84445c6dd55cc528cc752aba,2508.120316982269,False,click,tone_or_word,10158,[],choice-response,Lab or Lap,63769574ee2f0792ad9a3641,2022-11-17 15:11:32-05:00,debrief3,10161,423,Tone_word_debrief,Tone,4acd3,EXP8c
133,pass,6345b7f49677d36bd07c5a10,EXP8c_JF,0,4acd3a52431c954005e081bdeb12f13a1926ad1c84445c6dd55cc528cc752aba,2508.120316982269,,keypress,TxRsp,26198,,text-response,i was instructed to listen for lab or lap so i did not consider the possibility of any sound being a musical tone,63769574ee2f0792ad9a3641,2022-11-17 15:11:32-05:00,debrief4,26203,424,Tone_word_debrief,Tone,4acd3,EXP8c
134,pass,6345b7f49677d36bd07c5a10,EXP8c_JF,0,201da5f187067e4e3a60022bfe744f08d856fe79cd2a7f675757967b74a24c9d,2165.7997250556946,False,click,tone_or_word,31141,[],choice-response,Musical Tones,63769574ee2f0792ad9a3641,2022-11-17 15:11:32-05:00,debrief3,31144,423,Tone_word_debrief,Tone,201da,EXP8c
135,pass,6345b7f49677d36bd07c5a10,EXP8c_JF,0,201da5f187067e4e3a60022bfe744f08d856fe79cd2a7f675757967b74a24c9d,2165.7997250556946,,keypress,TxRsp,24161,,text-response,I didn't understand how the tones had anything to do with words,63769574ee2f0792ad9a3641,2022-11-17 15:11:32-05:00,debrief4,24167,424,Tone_word_debrief,Tone,201da,EXP8c
136,fail,6345b7f49677d36bd07c5a10,EXP8c_FJ,0,721addc59918255a52530babed8274c0a17ca0723146252210f98cffc9176d95,1812.9468648433685,False,click,tone_or_word,14125,[],choice-response,Musical Tones,63769574ee2f0792ad9a3641,2022-11-17 15:11:32-05:00,debrief3,14128,435,Tone_word_debrief,Tone,721ad,EXP8c
137,fail,6345b7f49677d36bd07c5a10,EXP8c_FJ,0,721addc59918255a52530babed8274c0a17ca0723146252210f98cffc9176d95,1812.9468648433685,,keypress,TxRsp,20576,,text-response,It feels more as a playing note. It was hard to differentiate them both as lab or lap.,63769574ee2f0792ad9a3641,2022-11-17 15:11:32-05:00,debrief4,20579,436,Tone_word_debrief,Tone,721ad,EXP8c
138,pass,6345b7f49677d36bd07c5a10,EXP8c_FJ,0,892e0fb39e8a2831b0aba744f9169bf509ebc62cf9c69831aab9d475615543e2,2231.89359998703,False,click,tone_or_word,11578,[],choice-response,Lab or Lap,63769574ee2f0792ad9a3641,2022-11-17 15:11:32-05:00,debrief3,11586,423,Tone_word_debrief,Tone,892e0,EXP8c
139,pass,6345b7f49677d36bd07c5a10,EXP8c_FJ,0,892e0fb39e8a2831b0aba744f9169bf509ebc62cf9c69831aab9d475615543e2,2231.89359998703,,keypress,TxRsp,79523,,text-response,"I noticed that the tone for ""lab"" was slightly slower in speed than that of ""lap."" The tone for ""lap"" came to a more abrupt stop, whereas the tone for ""lab"" seemed a millisecond longer.",63769574ee2f0792ad9a3641,2022-11-17 15:11:32-05:00,debrief4,79529,424,Tone_word_debrief,Tone,892e0,EXP8c
140,fail,6345b7f49677d36bd07c5a10,EXP8c_JF,0,2c1a9ccdafc3e167e4a431ed27fa084c3397528ef0066e3bfb0893031c417175,3058.4863560199738,False,click,tone_or_word,7967,[],choice-response,Musical Tones,63769574ee2f0792ad9a3641,2022-11-17 15:11:32-05:00,debrief3,7970,435,Tone_word_debrief,Tone,2c1a9,EXP8c
141,fail,6345b7f49677d36bd07c5a10,EXP8c_JF,0,2c1a9ccdafc3e167e4a431ed27fa084c3397528ef0066e3bfb0893031c417175,3058.4863560199738,,keypress,TxRsp,245701,,text-response,sounded like a musical note being played,63769574ee2f0792ad9a3641,2022-11-17 15:11:32-05:00,debrief4,245704,436,Tone_word_debrief,Tone,2c1a9,EXP8c
142,pass,6345b7f49677d36bd07c5a10,EXP8c_JF,0,323a1558dcbc6e71a474cb0338574b406d9f2007fb8fa7e1fabe514dfd8dfe6d,2056.4144971370692,False,click,tone_or_word,6637,[],choice-response,Musical Tones,63769574ee2f0792ad9a3641,2022-11-17 15:11:32-05:00,debrief3,6646,423,Tone_word_debrief,Tone,323a1,EXP8c
143,pass,6345b7f49677d36bd07c5a10,EXP8c_JF,0,323a1558dcbc6e71a474cb0338574b406d9f2007fb8fa7e1fabe514dfd8dfe6d,2056.4144971370692,,keypress,TxRsp,37211,,text-response,I couldn't make out the words as well but I could kinda distinguish the words by the tones and how long the notes were. Lab felt deeper and longer while lap felt more high pitched and cut short.,63769574ee2f0792ad9a3641,2022-11-17 15:11:32-05:00,debrief4,37218,424,Tone_word_debrief,Tone,323a1,EXP8c
144,pass,6345b7f49677d36bd07c5a10,EXP8c_FJ,0,ea15bd4d2993f1f90c871c310049a8dbdbd996aea6386c1dff1d69ecc21087e2,2282.046293973923,False,click,tone_or_word,3810,[],choice-response,Lab or Lap,63769574ee2f0792ad9a3641,2022-11-17 15:11:32-05:00,debrief3,3813,423,Tone_word_debrief,Tone,ea15b,EXP8c
145,pass,6345b7f49677d36bd07c5a10,EXP8c_FJ,0,ea15bd4d2993f1f90c871c310049a8dbdbd996aea6386c1dff1d69ecc21087e2,2282.046293973923,,keypress,TxRsp,6797,,text-response,I guessed,63769574ee2f0792ad9a3641,2022-11-17 15:11:32-05:00,debrief4,6799,424,Tone_word_debrief,Tone,ea15b,EXP8c
146,fail,6345b7f49677d36bd07c5a10,EXP8c_JF,0,d0b0c4516302d0ea3a142da8c10a32732e8029bea609fca95f50bda9401ebdf6,2903.7493250370026,False,click,tone_or_word,6116,[],choice-response,Musical Tones,63769574ee2f0792ad9a3641,2022-11-17 15:11:32-05:00,debrief3,6120,435,Tone_word_debrief,Tone,d0b0c,EXP8c
147,fail,6345b7f49677d36bd07c5a10,EXP8c_JF,0,d0b0c4516302d0ea3a142da8c10a32732e8029bea609fca95f50bda9401ebdf6,2903.7493250370026,,keypress,TxRsp,7067,,text-response,they were errie,63769574ee2f0792ad9a3641,2022-11-17 15:11:32-05:00,debrief4,7073,436,Tone_word_debrief,Tone,d0b0c,EXP8c
148,fail,6345b7f49677d36bd07c5a10,EXP8c_FJ,0,07f97011e72a63334e87ec195d5440e6b1b45ce7c5838a14af258e8da63886b5,3013.3813910484314,False,click,tone_or_word,14108,[],choice-response,Musical Tones,63769574ee2f0792ad9a3641,2022-11-17 15:11:32-05:00,debrief3,14114,435,Tone_word_debrief,Tone,07f97,EXP8c
149,fail,6345b7f49677d36bd07c5a10,EXP8c_FJ,0,07f97011e72a63334e87ec195d5440e6b1b45ce7c5838a14af258e8da63886b5,3013.3813910484314,,keypress,TxRsp,143102,,text-response,It initially just sounded like different musical sounds and then at some points it sounded like lab or lap. Im not sure if its because I was trying to make myself hear the words that I started to hear it a little. It alternated back to musical sounds throughout the experiment.,63769574ee2f0792ad9a3641,2022-11-17 15:11:32-05:00,debrief4,143104,436,Tone_word_debrief,Tone,07f97,EXP8c
150,pass,6345b7f49677d36bd07c5a10,EXP8c_JF,0,515705bb13101ffd0474fd6a8b398371fb17658dcf2d6d21049c69b8b0f1c2d2,1844.1345529556281,False,click,tone_or_word,5952,[],choice-response,Musical Tones,63769574ee2f0792ad9a3641,2022-11-17 15:11:32-05:00,debrief3,5953,423,Tone_word_debrief,Tone,51570,EXP8c
151,pass,6345b7f49677d36bd07c5a10,EXP8c_JF,0,515705bb13101ffd0474fd6a8b398371fb17658dcf2d6d21049c69b8b0f1c2d2,1844.1345529556281,,keypress,TxRsp,70085,,text-response,"I did not perceive them as the words, exactly. But, I did notice one was shorter than the other. I pronounce ""lab"" as a longer word than ""lap"" so I did associate the shorter sound with  lap and vice versa,",63769574ee2f0792ad9a3641,2022-11-17 15:11:32-05:00,debrief4,70087,424,Tone_word_debrief,Tone,51570,EXP8c
152,fail,6345b7f49677d36bd07c5a10,EXP8c_FJ,0,c9bed97e507f62fa303e7fade8ba39b5372210380ba5c0d6c36fe4537a654c25,2684.8668048381805,False,click,tone_or_word,11182,[],choice-response,Musical Tones,63769574ee2f0792ad9a3641,2022-11-17 15:11:32-05:00,debrief3,11186,435,Tone_word_debrief,Tone,c9bed,EXP8c
153,fail,6345b7f49677d36bd07c5a10,EXP8c_FJ,0,c9bed97e507f62fa303e7fade8ba39b5372210380ba5c0d6c36fe4537a654c25,2684.8668048381805,,keypress,TxRsp,13820,,text-response,i felt like i could only hear musical tones,63769574ee2f0792ad9a3641,2022-11-17 15:11:32-05:00,debrief4,13909,436,Tone_word_debrief,Tone,c9bed,EXP8c
154,pass,6345b7f49677d36bd07c5a10,EXP8c_FJ,0,8bed7fa105072cf95e21df8fff9e9cfc0451e2ab50fde03eaa45683e8a69873a,2343.062731981277,False,click,tone_or_word,10307,[],choice-response,Musical Tones,63769574ee2f0792ad9a3641,2022-11-17 15:11:32-05:00,debrief3,10309,423,Tone_word_debrief,Tone,8bed7,EXP8c
155,pass,6345b7f49677d36bd07c5a10,EXP8c_FJ,0,8bed7fa105072cf95e21df8fff9e9cfc0451e2ab50fde03eaa45683e8a69873a,2343.062731981277,,keypress,TxRsp,26591,,text-response,"I chose musical tones because they didn't ""sound"" like those words at all to me",63769574ee2f0792ad9a3641,2022-11-17 15:11:32-05:00,debrief4,26594,424,Tone_word_debrief,Tone,8bed7,EXP8c
156,fail,6345b7f49677d36bd07c5a10,EXP8c_FJ,0,37262b8f7a1a5cea2ca31f2c16fbe16e82323374c01265e58bd3606e0b045621,2106.6875519752507,False,click,tone_or_word,12187,[],choice-response,Lab or Lap,63769574ee2f0792ad9a3641,2022-11-17 15:11:32-05:00,debrief3,12189,435,Tone_word_debrief,Tone,37262,EXP8c
157,fail,6345b7f49677d36bd07c5a10,EXP8c_FJ,0,37262b8f7a1a5cea2ca31f2c16fbe16e82323374c01265e58bd3606e0b045621,2106.6875519752507,,keypress,TxRsp,53581,,text-response,"I heard it as lap being more of a shorter sound while lab is longer due to the ""b"", like labuh",63769574ee2f0792ad9a3641,2022-11-17 15:11:32-05:00,debrief4,53672,436,Tone_word_debrief,Tone,37262,EXP8c
158,pass,6345b7f49677d36bd07c5a10,EXP8c_JF,0,f216f9db72848859244e999157ead0a26713f0546a7427ef611e5f7b74b4b39b,2375.9733819961552,False,click,tone_or_word,32964,[],choice-response,Musical Tones,63769574ee2f0792ad9a3641,2022-11-17 15:11:32-05:00,debrief3,32976,423,Tone_word_debrief,Tone,f216f,EXP8c
159,pass,6345b7f49677d36bd07c5a10,EXP8c_JF,0,f216f9db72848859244e999157ead0a26713f0546a7427ef611e5f7b74b4b39b,2375.9733819961552,,keypress,TxRsp,130477,,text-response,"I didn't hear ""lap"" or ""lab"" per se . I just heard the tones but I did sense differences in the pitch and duration of tone. The ""Lab"" tone seemed to assoicated with lower frequency and longer duration while the ""lap"" seemed shorter in duration with higher frequency",63769574ee2f0792ad9a3641,2022-11-17 15:11:32-05:00,debrief4,130486,424,Tone_word_debrief,Tone,f216f,EXP8c
160,pass,6345b7f49677d36bd07c5a10,EXP8c_FJ,0,1bc48f0ee234f1fe13de029a231eb4181671a389b349f45c5a84da6cd9a047b9,1904.9616758823402,False,click,tone_or_word,8555,[],choice-response,Musical Tones,63769574ee2f0792ad9a3641,2022-11-17 15:11:32-05:00,debrief3,8559,423,Tone_word_debrief,Tone,1bc48,EXP8c
161,pass,6345b7f49677d36bd07c5a10,EXP8c_FJ,0,1bc48f0ee234f1fe13de029a231eb4181671a389b349f45c5a84da6cd9a047b9,1904.9616758823402,,keypress,TxRsp,27524,,text-response,Lap felt as if it were a lower tone.,63769574ee2f0792ad9a3641,2022-11-17 15:11:32-05:00,debrief4,27527,424,Tone_word_debrief,Tone,1bc48,EXP8c
162,fail,6345b7f49677d36bd07c5a10,EXP8c_FJ,0,81a9ffcb85108548342d207a7594bf7ebe8541da1294f159f1d10a3e974df689,3739.969701051712,False,click,tone_or_word,13173,[],choice-response,Musical Tones,63769574ee2f0792ad9a3641,2022-11-17 15:11:32-05:00,debrief3,13178,435,Tone_word_debrief,Tone,81a9f,EXP8c
163,fail,6345b7f49677d36bd07c5a10,EXP8c_FJ,0,81a9ffcb85108548342d207a7594bf7ebe8541da1294f159f1d10a3e974df689,3739.969701051712,,keypress,TxRsp,7409,,text-response,short or long,63769574ee2f0792ad9a3641,2022-11-17 15:11:32-05:00,debrief4,7414,436,Tone_word_debrief,Tone,81a9f,EXP8c
164,pass,6345b7f49677d36bd07c5a10,EXP8c_JF,0,31330168aa73c07ccef793b9ef86762844dc15e992b52c30de37f6b0820d9488,2227.0481688976292,False,click,tone_or_word,8259,[],choice-response,Musical Tones,63769574ee2f0792ad9a3641,2022-11-17 15:11:32-05:00,debrief3,8264,423,Tone_word_debrief,Tone,31330,EXP8c
165,pass,6345b7f49677d36bd07c5a10,EXP8c_JF,0,31330168aa73c07ccef793b9ef86762844dc15e992b52c30de37f6b0820d9488,2227.0481688976292,,keypress,TxRsp,26489,,text-response,"I had a lot of trouble hearing the words ""lab"" or ""lap."" The sounds felt more like musical tones than words with meaning.",63769574ee2f0792ad9a3641,2022-11-17 15:11:32-05:00,debrief4,26491,424,Tone_word_debrief,Tone,31330,EXP8c
166,pass,6345b7f49677d36bd07c5a10,EXP8c_JF,0,fb46c77a2db91ce428214fac7f64d6b915aea4d0091a486127e29bf00edd93a6,2116.5134348869324,False,click,tone_or_word,11308,[],choice-response,Musical Tones,63769574ee2f0792ad9a3641,2022-11-17 15:11:32-05:00,debrief3,11310,423,Tone_word_debrief,Tone,fb46c,EXP8c
167,pass,6345b7f49677d36bd07c5a10,EXP8c_JF,0,fb46c77a2db91ce428214fac7f64d6b915aea4d0091a486127e29bf00edd93a6,2116.5134348869324,,keypress,TxRsp,58658,,text-response,"I perceived the sounds being played as more musical tones rather than spoken words. More specifically, I thought it was playing beeps.",63769574ee2f0792ad9a3641,2022-11-17 15:11:32-05:00,debrief4,58659,424,Tone_word_debrief,Tone,fb46c,EXP8c
168,fail,6345b7f49677d36bd07c5a10,EXP8c_FJ,0,cc81e9c4aca49cfaebcc29b46bacede669f45b9e9205deb4792db525d7cc6366,2292.888203144073,False,click,tone_or_word,9642,[],choice-response,Lab or Lap,63769574ee2f0792ad9a3641,2022-11-17 15:11:32-05:00,debrief3,9660,435,Tone_word_debrief,Tone,cc81e,EXP8c
169,fail,6345b7f49677d36bd07c5a10,EXP8c_FJ,0,cc81e9c4aca49cfaebcc29b46bacede669f45b9e9205deb4792db525d7cc6366,2292.888203144073,,keypress,TxRsp,29458,,text-response,I would perceive the sound by the pitch of the sound,63769574ee2f0792ad9a3641,2022-11-17 15:11:32-05:00,debrief4,29462,436,Tone_word_debrief,Tone,cc81e,EXP8c
170,pass,6345b7f49677d36bd07c5a10,EXP8c_JF,0,ecc207309cafe7f7a72ad6402a6b3261215868e49a85f1324c5e137a67c3fe5d,2893.490884065628,False,click,tone_or_word,10721,[],choice-response,Musical Tones,63769574ee2f0792ad9a3641,2022-11-17 15:11:32-05:00,debrief3,10725,423,Tone_word_debrief,Tone,ecc20,EXP8c
171,pass,6345b7f49677d36bd07c5a10,EXP8c_JF,0,ecc207309cafe7f7a72ad6402a6b3261215868e49a85f1324c5e137a67c3fe5d,2893.490884065628,,keypress,TxRsp,24389,,text-response,lab sounded longer and deeper than lap,63769574ee2f0792ad9a3641,2022-11-17 15:11:32-05:00,debrief4,24391,424,Tone_word_debrief,Tone,ecc20,EXP8c
172,pass,6345b7f49677d36bd07c5a10,EXP8c_JF,0,9ec338fe1a94e7fa106ebb52e1ade9da17c166a94332ce676398486430fde735,2428.8594799041753,False,click,tone_or_word,9176,[],choice-response,Musical Tones,63769574ee2f0792ad9a3641,2022-11-17 15:11:32-05:00,debrief3,9178,423,Tone_word_debrief,Tone,9ec33,EXP8c
173,pass,6345b7f49677d36bd07c5a10,EXP8c_JF,0,9ec338fe1a94e7fa106ebb52e1ade9da17c166a94332ce676398486430fde735,2428.8594799041753,,keypress,TxRsp,39326,,text-response,The tone perceived as lap was more of a quick cut off and lower tone rather than lab sounding more of a fuller not cut off tone,63769574ee2f0792ad9a3641,2022-11-17 15:11:32-05:00,debrief4,39328,424,Tone_word_debrief,Tone,9ec33,EXP8c
174,pass,6345b7f49677d36bd07c5a10,EXP8c_FJ,0,ae71dcbc5698678e7dd5559858d8d5184ee452520d5098f52394860f33903ca5,4977.0327219963065,False,click,tone_or_word,8295,[],choice-response,Musical Tones,63769574ee2f0792ad9a3641,2022-11-17 15:11:32-05:00,debrief3,8309,423,Tone_word_debrief,Tone,ae71d,EXP8c
175,pass,6345b7f49677d36bd07c5a10,EXP8c_FJ,0,ae71dcbc5698678e7dd5559858d8d5184ee452520d5098f52394860f33903ca5,4977.0327219963065,,keypress,TxRsp,940355,,text-response,"I never heard the word lap or lab, but rather the length of the musical tone.",63769574ee2f0792ad9a3641,2022-11-17 15:11:32-05:00,debrief4,940362,424,Tone_word_debrief,Tone,ae71d,EXP8c
176,pass,6345b7f49677d36bd07c5a10,EXP8c_FJ,0,13729ff8561599289706a531c3ab28c563222a053688d828fdf6cc900fc57c01,1797.8739120960236,False,click,tone_or_word,12731,[],choice-response,Musical Tones,63769574ee2f0792ad9a3641,2022-11-17 15:11:32-05:00,debrief3,12733,423,Tone_word_debrief,Tone,13729,EXP8c
177,pass,6345b7f49677d36bd07c5a10,EXP8c_FJ,0,13729ff8561599289706a531c3ab28c563222a053688d828fdf6cc900fc57c01,1797.8739120960236,,keypress,TxRsp,14768,,text-response,I can only hear the differences in tones,63769574ee2f0792ad9a3641,2022-11-17 15:11:32-05:00,debrief4,14769,424,Tone_word_debrief,Tone,13729,EXP8c
178,pass,6345b7f49677d36bd07c5a10,EXP8c_JF,0,795394b2b750b5a818d1bf0a2936dedcbfd4a7600766b610466a4e05a31887ec,2564.468030929565,False,click,tone_or_word,11617,[],choice-response,Musical Tones,63769574ee2f0792ad9a3641,2022-11-17 15:11:32-05:00,debrief3,11619,423,Tone_word_debrief,Tone,79539,EXP8c
179,pass,6345b7f49677d36bd07c5a10,EXP8c_JF,0,795394b2b750b5a818d1bf0a2936dedcbfd4a7600766b610466a4e05a31887ec,2564.468030929565,,keypress,TxRsp,17302,,text-response,I listened to more dings and buzzes than words,63769574ee2f0792ad9a3641,2022-11-17 15:11:32-05:00,debrief4,17304,424,Tone_word_debrief,Tone,79539,EXP8c
180,fail,6345b7f49677d36bd07c5a10,EXP8c_JF,0,08d1cf8282203712f1fc9e19ba1c70c0c6a7a297cb54c941d5c3018a35a233cf,3817.248404026032,False,click,tone_or_word,80594,[],choice-response,Musical Tones,63769574ee2f0792ad9a3641,2022-11-17 15:11:32-05:00,debrief3,80599,435,Tone_word_debrief,Tone,08d1c,EXP8c
181,fail,6345b7f49677d36bd07c5a10,EXP8c_JF,0,08d1cf8282203712f1fc9e19ba1c70c0c6a7a297cb54c941d5c3018a35a233cf,3817.248404026032,,keypress,TxRsp,114781,,text-response,"I really could'nt tell if they were actual words, they did sound more just like musical tones.",63769574ee2f0792ad9a3641,2022-11-17 15:11:32-05:00,debrief4,114785,436,Tone_word_debrief,Tone,08d1c,EXP8c
182,pass,6345b7f49677d36bd07c5a10,EXP8c_JF,0,0b3ef9d47a140092351ef09a3aec33f8b845376fb66971fc401e56b94129f796,1709.448224067688,False,click,tone_or_word,11383,[],choice-response,Lab or Lap,63769574ee2f0792ad9a3641,2022-11-17 15:11:32-05:00,debrief3,11385,423,Tone_word_debrief,Tone,0b3ef,EXP8c
183,pass,6345b7f49677d36bd07c5a10,EXP8c_JF,0,0b3ef9d47a140092351ef09a3aec33f8b845376fb66971fc401e56b94129f796,1709.448224067688,,keypress,TxRsp,13229,,text-response,I tried to hear the sound as a word,63769574ee2f0792ad9a3641,2022-11-17 15:11:32-05:00,debrief4,13232,424,Tone_word_debrief,Tone,0b3ef,EXP8c
184,fail,6345b7f49677d36bd07c5a10,EXP8c_FJ,0,615be62b8f3ab73a30b38657d1053a07f3f94b0e61919193f4837dd54d9599ea,1979.0350279808044,False,click,tone_or_word,5659,[],choice-response,Musical Tones,63769574ee2f0792ad9a3641,2022-11-17 15:11:32-05:00,debrief3,5663,435,Tone_word_debrief,Tone,615be,EXP8c
185,fail,6345b7f49677d36bd07c5a10,EXP8c_FJ,0,615be62b8f3ab73a30b38657d1053a07f3f94b0e61919193f4837dd54d9599ea,1979.0350279808044,,keypress,TxRsp,18955,,text-response,I heard more musical tones than words.,63769574ee2f0792ad9a3641,2022-11-17 15:11:32-05:00,debrief4,18974,436,Tone_word_debrief,Tone,615be,EXP8c
186,fail,6345b7f49677d36bd07c5a10,EXP8c_FJ,0,0594471017d668c368d8cc2915a8e03529e3a5d19c4a0fdd4073699402e38424,2067.6564421653748,False,click,tone_or_word,8292,[],choice-response,Lab or Lap,63769574ee2f0792ad9a3641,2022-11-17 15:11:32-05:00,debrief3,8297,435,Tone_word_debrief,Tone,05944,EXP8c
187,fail,6345b7f49677d36bd07c5a10,EXP8c_FJ,0,0594471017d668c368d8cc2915a8e03529e3a5d19c4a0fdd4073699402e38424,2067.6564421653748,,keypress,TxRsp,31977,,text-response,Intution,63769574ee2f0792ad9a3641,2022-11-17 15:11:32-05:00,debrief4,31984,436,Tone_word_debrief,Tone,05944,EXP8c
188,pass,6345b7f49677d36bd07c5a10,EXP8c_JF,0,12e7bbe9edfe05a20e9793e4795387b34d2e08054279563b28ec37e80219e412,7999.583134889604,False,click,tone_or_word,7391,[],choice-response,Lab or Lap,6382505f1517c76bb9b79768,2022-11-26 12:43:59-05:00,debrief3,7393,423,Tone_word_debrief,Tone,12e7b,EXP8c
189,pass,6345b7f49677d36bd07c5a10,EXP8c_JF,0,12e7bbe9edfe05a20e9793e4795387b34d2e08054279563b28ec37e80219e412,7999.583134889604,,keypress,TxRsp,17513,,text-response,the tones were similar to how one would say these words,6382505f1517c76bb9b79768,2022-11-26 12:43:59-05:00,debrief4,17526,424,Tone_word_debrief,Tone,12e7b,EXP8c
190,pass,6345b7f49677d36bd07c5a10,EXP8c_FJ,0,13aa8439d4c9de53f1d6e641d4b29c171661c3b6c7ee3eab15fa8a126be0e4e1,2668.746934890747,False,click,tone_or_word,10911,[],choice-response,Musical Tones,6382505f1517c76bb9b79768,2022-11-26 12:43:59-05:00,debrief3,10912,423,Tone_word_debrief,Tone,13aa8,EXP8c
191,pass,6345b7f49677d36bd07c5a10,EXP8c_FJ,0,13aa8439d4c9de53f1d6e641d4b29c171661c3b6c7ee3eab15fa8a126be0e4e1,2668.746934890747,,keypress,TxRsp,53288,,text-response,"I felt as though if i thought the sound sounded like lab then it sounded most like it and vice versa. however, if i didnt lean towards a word it just sounded like a musical tone",6382505f1517c76bb9b79768,2022-11-26 12:43:59-05:00,debrief4,53290,424,Tone_word_debrief,Tone,13aa8,EXP8c
192,pass,6345b7f49677d36bd07c5a10,EXP8c_FJ,0,a131bc34f4bddea5dc0c58bf058a7a2ddfa6b85918802dbdc6cb80b117ad3331,2319.593710184097,False,click,tone_or_word,11127,[],choice-response,Musical Tones,6382505f1517c76bb9b79768,2022-11-26 12:43:59-05:00,debrief3,11132,423,Tone_word_debrief,Tone,a131b,EXP8c
193,pass,6345b7f49677d36bd07c5a10,EXP8c_FJ,0,a131bc34f4bddea5dc0c58bf058a7a2ddfa6b85918802dbdc6cb80b117ad3331,2319.593710184097,,keypress,TxRsp,31752,,text-response,for me it was more about identifying musical/sound patterns rather than identifying separate words,6382505f1517c76bb9b79768,2022-11-26 12:43:59-05:00,debrief4,31756,424,Tone_word_debrief,Tone,a131b,EXP8c
194,pass,6345b7f49677d36bd07c5a10,EXP8c_JF,0,ee4236443859ef689f743ce3db8ce50c0ea5d9a2bd0a5ee9a5a299a0da520114,1960.2922070026398,False,click,tone_or_word,8354,[],choice-response,Musical Tones,6382505f1517c76bb9b79768,2022-11-26 12:43:59-05:00,debrief3,8358,423,Tone_word_debrief,Tone,ee423,EXP8c
195,pass,6345b7f49677d36bd07c5a10,EXP8c_JF,0,ee4236443859ef689f743ce3db8ce50c0ea5d9a2bd0a5ee9a5a299a0da520114,1960.2922070026398,,keypress,TxRsp,49404,,text-response,I think that by the end of the experiment I related these words to the musical tones because I personally did not hear any correlation to the words themselves.,6382505f1517c76bb9b79768,2022-11-26 12:43:59-05:00,debrief4,49409,424,Tone_word_debrief,Tone,ee423,EXP8c
196,pass,6345b7f49677d36bd07c5a10,EXP8c_JF,0,9077ab4ac2c6a1eaf3fb98f663c10d7b81a6cc9251094a2bb883f7723f6f0b08,2366.5490440000003,False,click,tone_or_word,14649,[],choice-response,Musical Tones,63855a7052dc2c8cc811b3a4,2022-11-28 20:03:44-05:00,debrief3,14652,423,Tone_word_debrief,Tone,9077a,EXP8c
197,pass,6345b7f49677d36bd07c5a10,EXP8c_JF,0,9077ab4ac2c6a1eaf3fb98f663c10d7b81a6cc9251094a2bb883f7723f6f0b08,2366.5490440000003,,keypress,TxRsp,88260,,text-response,"It was hard for me to differentiate a word from the sound I was hearing. I had to really focus on hearing for that tone at the end, whether it was a B or P.  The sounds started to sound a bit rushed in the beginning but the more I tried to listen to the tones, the more I was hearing the sounds rather than musical tones.",63855a7052dc2c8cc811b3a4,2022-11-28 20:03:44-05:00,debrief4,88263,424,Tone_word_debrief,Tone,9077a,EXP8c
198,pass,6345b7f49677d36bd07c5a10,EXP8c_FJ,0,5f27d92c59340ef2fcf3bdd8622eae883afa75247891c08f7147a3047a9e1c69,1826.6811,False,click,tone_or_word,12315,[],choice-response,Lab or Lap,63855a7052dc2c8cc811b3a4,2022-11-28 20:03:44-05:00,debrief3,12316,423,Tone_word_debrief,Tone,5f27d,EXP8c
199,pass,6345b7f49677d36bd07c5a10,EXP8c_FJ,0,5f27d92c59340ef2fcf3bdd8622eae883afa75247891c08f7147a3047a9e1c69,1826.6811,,keypress,TxRsp,25134,,text-response,"If I thought about hearing the word lab or lap before I heard the sound, then I believed I heard it.",63855a7052dc2c8cc811b3a4,2022-11-28 20:03:44-05:00,debrief4,25137,424,Tone_word_debrief,Tone,5f27d,EXP8c
