,expt_id,group_id,network_error_repeat,participant_id,participation_duration,response_correct,response_mode,response_name,response_rt,response_target,response_type,response_value,session_id,stimuli_presented,trial_duration,trial_num,trial_template,Onset,Length
0,5fb6ae2b172cc12b1c5b3050,Group_FJ,0,89c4823ca3301fd0cfeda439ec845b239f84f4f6ea97b64b9cab832d0dca631a,1575,False,keypress,testresponse_s_F,345,['Shorter'],choice-response,Longer,5fbc55f9be36f3ba328bd89b,single_300ms_delay_2_51,3358,83,maintaskTrials_2_s,5,1
1,5fb6ae2b172cc12b1c5b3050,Group_FJ,0,89c4823ca3301fd0cfeda439ec845b239f84f4f6ea97b64b9cab832d0dca631a,1575,True,keypress,testresponse_l_J,179,['Longer'],choice-response,Longer,5fbc55f9be36f3ba328bd89b,single_300ms_delay_2_95,3275,84,maintaskTrials_2_l,9,5
2,5fb6ae2b172cc12b1c5b3050,Group_FJ,0,89c4823ca3301fd0cfeda439ec845b239f84f4f6ea97b64b9cab832d0dca631a,1575,False,keypress,testresponse_l_J,335,['Longer'],choice-response,Shorter,5fbc55f9be36f3ba328bd89b,single_300ms_delay_2_55,3318,85,maintaskTrials_2_l,5,5
3,5fb6ae2b172cc12b1c5b3050,Group_FJ,0,89c4823ca3301fd0cfeda439ec845b239f84f4f6ea97b64b9cab832d0dca631a,1575,True,keypress,testresponse_s_F,475,['Shorter'],choice-response,Shorter,5fbc55f9be36f3ba328bd89b,single_300ms_delay_2_53,3398,86,maintaskTrials_2_s,5,3
4,5fb6ae2b172cc12b1c5b3050,Group_FJ,0,89c4823ca3301fd0cfeda439ec845b239f84f4f6ea97b64b9cab832d0dca631a,1575,False,keypress,testresponse_l_J,322,['Longer'],choice-response,Shorter,5fbc55f9be36f3ba328bd89b,single_300ms_delay_2_54,3376,87,maintaskTrials_2_l,5,4
5,5fb6ae2b172cc12b1c5b3050,Group_FJ,0,89c4823ca3301fd0cfeda439ec845b239f84f4f6ea97b64b9cab832d0dca631a,1575,True,keypress,testresponse_s_F,220,['Shorter'],choice-response,Shorter,5fbc55f9be36f3ba328bd89b,single_300ms_delay_2_83,3221,88,maintaskTrials_2_s,8,3
6,5fb6ae2b172cc12b1c5b3050,Group_FJ,0,89c4823ca3301fd0cfeda439ec845b239f84f4f6ea97b64b9cab832d0dca631a,1575,True,keypress,testresponse_s_F,335,['Shorter'],choice-response,Shorter,5fbc55f9be36f3ba328bd89b,single_300ms_delay_2_91,3392,89,maintaskTrials_2_s,9,1
7,5fb6ae2b172cc12b1c5b3050,Group_FJ,0,89c4823ca3301fd0cfeda439ec845b239f84f4f6ea97b64b9cab832d0dca631a,1575,True,keypress,testresponse_s_F,530,['Shorter'],choice-response,Shorter,5fbc55f9be36f3ba328bd89b,single_300ms_delay_2_92,3678,90,maintaskTrials_2_s,9,2
8,5fb6ae2b172cc12b1c5b3050,Group_FJ,0,89c4823ca3301fd0cfeda439ec845b239f84f4f6ea97b64b9cab832d0dca631a,1575,True,keypress,testresponse_s_F,261,['Shorter'],choice-response,Shorter,5fbc55f9be36f3ba328bd89b,single_300ms_delay_2_93,3457,91,maintaskTrials_2_s,9,3
9,5fb6ae2b172cc12b1c5b3050,Group_FJ,0,89c4823ca3301fd0cfeda439ec845b239f84f4f6ea97b64b9cab832d0dca631a,1575,False,keypress,testresponse_l_J,365,['Longer'],choice-response,Shorter,5fbc55f9be36f3ba328bd89b,single_300ms_delay_2_56,3405,92,maintaskTrials_2_l,5,6
10,5fb6ae2b172cc12b1c5b3050,Group_FJ,0,89c4823ca3301fd0cfeda439ec845b239f84f4f6ea97b64b9cab832d0dca631a,1575,False,keypress,testresponse_s_F,762,['Shorter'],choice-response,Longer,5fbc55f9be36f3ba328bd89b,single_300ms_delay_2_81,3737,93,maintaskTrials_2_s,8,1
11,5fb6ae2b172cc12b1c5b3050,Group_FJ,0,89c4823ca3301fd0cfeda439ec845b239f84f4f6ea97b64b9cab832d0dca631a,1575,True,keypress,testresponse_s_F,588,['Shorter'],choice-response,Shorter,5fbc55f9be36f3ba328bd89b,single_300ms_delay_2_82,3621,94,maintaskTrials_2_s,8,2
12,5fb6ae2b172cc12b1c5b3050,Group_FJ,0,89c4823ca3301fd0cfeda439ec845b239f84f4f6ea97b64b9cab832d0dca631a,1575,True,keypress,testresponse_l_J,251,['Longer'],choice-response,Longer,5fbc55f9be36f3ba328bd89b,single_300ms_delay_2_96,3405,95,maintaskTrials_2_l,9,6
13,5fb6ae2b172cc12b1c5b3050,Group_FJ,0,89c4823ca3301fd0cfeda439ec845b239f84f4f6ea97b64b9cab832d0dca631a,1575,True,keypress,testresponse_s_F,190,['Shorter'],choice-response,Shorter,5fbc55f9be36f3ba328bd89b,single_300ms_delay_2_52,3136,96,maintaskTrials_2_s,5,2
14,5fb6ae2b172cc12b1c5b3050,Group_FJ,0,89c4823ca3301fd0cfeda439ec845b239f84f4f6ea97b64b9cab832d0dca631a,1575,True,keypress,testresponse_l_J,220,['Longer'],choice-response,Longer,5fbc55f9be36f3ba328bd89b,single_300ms_delay_2_94,3467,97,maintaskTrials_2_l,9,4
15,5fb6ae2b172cc12b1c5b3050,Group_FJ,0,89c4823ca3301fd0cfeda439ec845b239f84f4f6ea97b64b9cab832d0dca631a,1575,False,keypress,testresponse_l_J,378,['Longer'],choice-response,Shorter,5fbc55f9be36f3ba328bd89b,single_300ms_delay_2_85,3452,98,maintaskTrials_2_l,8,5
16,5fb6ae2b172cc12b1c5b3050,Group_FJ,0,89c4823ca3301fd0cfeda439ec845b239f84f4f6ea97b64b9cab832d0dca631a,1575,False,keypress,testresponse_l_J,636,['Longer'],choice-response,Shorter,5fbc55f9be36f3ba328bd89b,single_300ms_delay_2_84,3719,99,maintaskTrials_2_l,8,4
17,5fb6ae2b172cc12b1c5b3050,Group_FJ,0,89c4823ca3301fd0cfeda439ec845b239f84f4f6ea97b64b9cab832d0dca631a,1575,True,keypress,testresponse_l_J,90,['Longer'],choice-response,Longer,5fbc55f9be36f3ba328bd89b,single_300ms_delay_2_86,3208,100,maintaskTrials_2_l,8,6
18,5fb6ae2b172cc12b1c5b3050,Group_FJ,0,89c4823ca3301fd0cfeda439ec845b239f84f4f6ea97b64b9cab832d0dca631a,1575,True,keypress,testresponse_l_J,446,['Longer'],choice-response,Longer,5fbc55f9be36f3ba328bd89b,single_300ms_delay_2_56,3399,101,maintaskTrials_2_l,5,6
19,5fb6ae2b172cc12b1c5b3050,Group_FJ,0,89c4823ca3301fd0cfeda439ec845b239f84f4f6ea97b64b9cab832d0dca631a,1575,True,keypress,testresponse_l_J,483,['Longer'],choice-response,Longer,5fbc55f9be36f3ba328bd89b,single_300ms_delay_2_55,3470,102,maintaskTrials_2_l,5,5
20,5fb6ae2b172cc12b1c5b3050,Group_FJ,0,89c4823ca3301fd0cfeda439ec845b239f84f4f6ea97b64b9cab832d0dca631a,1575,True,keypress,testresponse_l_J,350,['Longer'],choice-response,Longer,5fbc55f9be36f3ba328bd89b,single_300ms_delay_2_95,3425,103,maintaskTrials_2_l,9,5
21,5fb6ae2b172cc12b1c5b3050,Group_FJ,0,89c4823ca3301fd0cfeda439ec845b239f84f4f6ea97b64b9cab832d0dca631a,1575,False,keypress,testresponse_s_F,275,['Shorter'],choice-response,Longer,5fbc55f9be36f3ba328bd89b,single_300ms_delay_2_81,3267,104,maintaskTrials_2_s,8,1
22,5fb6ae2b172cc12b1c5b3050,Group_FJ,0,89c4823ca3301fd0cfeda439ec845b239f84f4f6ea97b64b9cab832d0dca631a,1575,True,keypress,testresponse_l_J,269,['Longer'],choice-response,Longer,5fbc55f9be36f3ba328bd89b,single_300ms_delay_2_54,3248,105,maintaskTrials_2_l,5,4
23,5fb6ae2b172cc12b1c5b3050,Group_FJ,0,89c4823ca3301fd0cfeda439ec845b239f84f4f6ea97b64b9cab832d0dca631a,1575,True,keypress,testresponse_l_J,263,['Longer'],choice-response,Longer,5fbc55f9be36f3ba328bd89b,single_300ms_delay_2_85,3325,106,maintaskTrials_2_l,8,5
24,5fb6ae2b172cc12b1c5b3050,Group_FJ,0,89c4823ca3301fd0cfeda439ec845b239f84f4f6ea97b64b9cab832d0dca631a,1575,True,keypress,testresponse_l_J,190,['Longer'],choice-response,Longer,5fbc55f9be36f3ba328bd89b,single_300ms_delay_2_96,3330,107,maintaskTrials_2_l,9,6
25,5fb6ae2b172cc12b1c5b3050,Group_FJ,0,89c4823ca3301fd0cfeda439ec845b239f84f4f6ea97b64b9cab832d0dca631a,1575,False,keypress,testresponse_s_F,319,['Shorter'],choice-response,Longer,5fbc55f9be36f3ba328bd89b,single_300ms_delay_2_92,3461,108,maintaskTrials_2_s,9,2
26,5fb6ae2b172cc12b1c5b3050,Group_FJ,0,89c4823ca3301fd0cfeda439ec845b239f84f4f6ea97b64b9cab832d0dca631a,1575,False,keypress,testresponse_l_J,507,['Longer'],choice-response,Shorter,5fbc55f9be36f3ba328bd89b,single_300ms_delay_2_86,3611,109,maintaskTrials_2_l,8,6
27,5fb6ae2b172cc12b1c5b3050,Group_FJ,0,89c4823ca3301fd0cfeda439ec845b239f84f4f6ea97b64b9cab832d0dca631a,1575,True,keypress,testresponse_s_F,631,['Shorter'],choice-response,Shorter,5fbc55f9be36f3ba328bd89b,single_300ms_delay_2_82,3611,110,maintaskTrials_2_s,8,2
28,5fb6ae2b172cc12b1c5b3050,Group_FJ,0,89c4823ca3301fd0cfeda439ec845b239f84f4f6ea97b64b9cab832d0dca631a,1575,False,keypress,testresponse_l_J,611,['Longer'],choice-response,Shorter,5fbc55f9be36f3ba328bd89b,single_300ms_delay_2_84,3646,111,maintaskTrials_2_l,8,4
29,5fb6ae2b172cc12b1c5b3050,Group_FJ,0,89c4823ca3301fd0cfeda439ec845b239f84f4f6ea97b64b9cab832d0dca631a,1575,True,keypress,testresponse_s_F,329,['Shorter'],choice-response,Shorter,5fbc55f9be36f3ba328bd89b,single_300ms_delay_2_52,3163,112,maintaskTrials_2_s,5,2
30,5fb6ae2b172cc12b1c5b3050,Group_FJ,0,89c4823ca3301fd0cfeda439ec845b239f84f4f6ea97b64b9cab832d0dca631a,1575,False,keypress,testresponse_s_F,200,['Shorter'],choice-response,Longer,5fbc55f9be36f3ba328bd89b,single_300ms_delay_2_93,3362,113,maintaskTrials_2_s,9,3
31,5fb6ae2b172cc12b1c5b3050,Group_FJ,0,89c4823ca3301fd0cfeda439ec845b239f84f4f6ea97b64b9cab832d0dca631a,1575,True,keypress,testresponse_s_F,260,['Shorter'],choice-response,Shorter,5fbc55f9be36f3ba328bd89b,single_300ms_delay_2_53,3226,114,maintaskTrials_2_s,5,3
32,5fb6ae2b172cc12b1c5b3050,Group_FJ,0,89c4823ca3301fd0cfeda439ec845b239f84f4f6ea97b64b9cab832d0dca631a,1575,True,keypress,testresponse_l_J,370,['Longer'],choice-response,Longer,5fbc55f9be36f3ba328bd89b,single_300ms_delay_2_94,3534,115,maintaskTrials_2_l,9,4
33,5fb6ae2b172cc12b1c5b3050,Group_FJ,0,89c4823ca3301fd0cfeda439ec845b239f84f4f6ea97b64b9cab832d0dca631a,1575,True,keypress,testresponse_s_F,364,['Shorter'],choice-response,Shorter,5fbc55f9be36f3ba328bd89b,single_300ms_delay_2_83,3369,116,maintaskTrials_2_s,8,3
34,5fb6ae2b172cc12b1c5b3050,Group_FJ,0,89c4823ca3301fd0cfeda439ec845b239f84f4f6ea97b64b9cab832d0dca631a,1575,True,keypress,testresponse_s_F,295,['Shorter'],choice-response,Shorter,5fbc55f9be36f3ba328bd89b,single_300ms_delay_2_91,3387,117,maintaskTrials_2_s,9,1
35,5fb6ae2b172cc12b1c5b3050,Group_FJ,0,89c4823ca3301fd0cfeda439ec845b239f84f4f6ea97b64b9cab832d0dca631a,1575,True,keypress,testresponse_s_F,209,['Shorter'],choice-response,Shorter,5fbc55f9be36f3ba328bd89b,single_300ms_delay_2_51,3112,118,maintaskTrials_2_s,5,1
36,5fb6ae2b172cc12b1c5b3050,Group_FJ,0,89c4823ca3301fd0cfeda439ec845b239f84f4f6ea97b64b9cab832d0dca631a,1575,True,keypress,testresponse_l_J,259,['Longer'],choice-response,Longer,5fbc55f9be36f3ba328bd89b,single_300ms_delay_2_96,3435,119,maintaskTrials_2_l,9,6
37,5fb6ae2b172cc12b1c5b3050,Group_FJ,0,89c4823ca3301fd0cfeda439ec845b239f84f4f6ea97b64b9cab832d0dca631a,1575,True,keypress,testresponse_l_J,222,['Longer'],choice-response,Longer,5fbc55f9be36f3ba328bd89b,single_300ms_delay_2_95,3359,120,maintaskTrials_2_l,9,5
38,5fb6ae2b172cc12b1c5b3050,Group_FJ,0,89c4823ca3301fd0cfeda439ec845b239f84f4f6ea97b64b9cab832d0dca631a,1575,True,keypress,testresponse_s_F,118,['Shorter'],choice-response,Shorter,5fbc55f9be36f3ba328bd89b,single_300ms_delay_2_51,3037,121,maintaskTrials_2_s,5,1
39,5fb6ae2b172cc12b1c5b3050,Group_FJ,0,89c4823ca3301fd0cfeda439ec845b239f84f4f6ea97b64b9cab832d0dca631a,1575,True,keypress,testresponse_l_J,178,['Longer'],choice-response,Longer,5fbc55f9be36f3ba328bd89b,single_300ms_delay_2_85,3180,122,maintaskTrials_2_l,8,5
40,5fb6ae2b172cc12b1c5b3050,Group_FJ,0,89c4823ca3301fd0cfeda439ec845b239f84f4f6ea97b64b9cab832d0dca631a,1575,False,keypress,testresponse_s_F,363,['Shorter'],choice-response,Longer,5fbc55f9be36f3ba328bd89b,single_300ms_delay_2_83,3532,123,maintaskTrials_2_s,8,3
41,5fb6ae2b172cc12b1c5b3050,Group_FJ,0,89c4823ca3301fd0cfeda439ec845b239f84f4f6ea97b64b9cab832d0dca631a,1575,False,keypress,testresponse_l_J,207,['Longer'],choice-response,Shorter,5fbc55f9be36f3ba328bd89b,single_300ms_delay_2_55,3100,124,maintaskTrials_2_l,5,5
42,5fb6ae2b172cc12b1c5b3050,Group_FJ,0,89c4823ca3301fd0cfeda439ec845b239f84f4f6ea97b64b9cab832d0dca631a,1575,True,keypress,testresponse_s_F,274,['Shorter'],choice-response,Shorter,5fbc55f9be36f3ba328bd89b,single_300ms_delay_2_53,3262,125,maintaskTrials_2_s,5,3
43,5fb6ae2b172cc12b1c5b3050,Group_FJ,0,89c4823ca3301fd0cfeda439ec845b239f84f4f6ea97b64b9cab832d0dca631a,1575,False,keypress,testresponse_l_J,172,['Longer'],choice-response,Shorter,5fbc55f9be36f3ba328bd89b,single_300ms_delay_2_54,3077,126,maintaskTrials_2_l,5,4
44,5fb6ae2b172cc12b1c5b3050,Group_FJ,0,89c4823ca3301fd0cfeda439ec845b239f84f4f6ea97b64b9cab832d0dca631a,1575,True,keypress,testresponse_l_J,125,['Longer'],choice-response,Longer,5fbc55f9be36f3ba328bd89b,single_300ms_delay_2_84,3126,127,maintaskTrials_2_l,8,4
45,5fb6ae2b172cc12b1c5b3050,Group_FJ,0,89c4823ca3301fd0cfeda439ec845b239f84f4f6ea97b64b9cab832d0dca631a,1575,True,keypress,testresponse_s_F,188,['Shorter'],choice-response,Shorter,5fbc55f9be36f3ba328bd89b,single_300ms_delay_2_52,3326,128,maintaskTrials_2_s,5,2
46,5fb6ae2b172cc12b1c5b3050,Group_FJ,0,89c4823ca3301fd0cfeda439ec845b239f84f4f6ea97b64b9cab832d0dca631a,1575,False,keypress,testresponse_s_F,402,['Shorter'],choice-response,Longer,5fbc55f9be36f3ba328bd89b,single_300ms_delay_2_93,3518,129,maintaskTrials_2_s,9,3
47,5fb6ae2b172cc12b1c5b3050,Group_FJ,0,89c4823ca3301fd0cfeda439ec845b239f84f4f6ea97b64b9cab832d0dca631a,1575,True,keypress,testresponse_l_J,57,['Longer'],choice-response,Longer,5fbc55f9be36f3ba328bd89b,single_300ms_delay_2_86,3103,130,maintaskTrials_2_l,8,6
48,5fb6ae2b172cc12b1c5b3050,Group_FJ,0,89c4823ca3301fd0cfeda439ec845b239f84f4f6ea97b64b9cab832d0dca631a,1575,False,keypress,testresponse_s_F,231,['Shorter'],choice-response,Longer,5fbc55f9be36f3ba328bd89b,single_300ms_delay_2_91,3338,131,maintaskTrials_2_s,9,1
49,5fb6ae2b172cc12b1c5b3050,Group_FJ,0,89c4823ca3301fd0cfeda439ec845b239f84f4f6ea97b64b9cab832d0dca631a,1575,False,keypress,testresponse_s_F,242,['Shorter'],choice-response,Longer,5fbc55f9be36f3ba328bd89b,single_300ms_delay_2_81,3308,132,maintaskTrials_2_s,8,1
50,5fb6ae2b172cc12b1c5b3050,Group_FJ,0,89c4823ca3301fd0cfeda439ec845b239f84f4f6ea97b64b9cab832d0dca631a,1575,True,keypress,testresponse_s_F,581,['Shorter'],choice-response,Shorter,5fbc55f9be36f3ba328bd89b,single_300ms_delay_2_82,3562,133,maintaskTrials_2_s,8,2
51,5fb6ae2b172cc12b1c5b3050,Group_FJ,0,89c4823ca3301fd0cfeda439ec845b239f84f4f6ea97b64b9cab832d0dca631a,1575,False,keypress,testresponse_s_F,195,['Shorter'],choice-response,Longer,5fbc55f9be36f3ba328bd89b,single_300ms_delay_2_92,3260,134,maintaskTrials_2_s,9,2
52,5fb6ae2b172cc12b1c5b3050,Group_FJ,0,89c4823ca3301fd0cfeda439ec845b239f84f4f6ea97b64b9cab832d0dca631a,1575,True,keypress,testresponse_l_J,168,['Longer'],choice-response,Longer,5fbc55f9be36f3ba328bd89b,single_300ms_delay_2_94,3320,135,maintaskTrials_2_l,9,4
53,5fb6ae2b172cc12b1c5b3050,Group_FJ,0,89c4823ca3301fd0cfeda439ec845b239f84f4f6ea97b64b9cab832d0dca631a,1575,True,keypress,testresponse_l_J,273,['Longer'],choice-response,Longer,5fbc55f9be36f3ba328bd89b,single_300ms_delay_2_56,3283,136,maintaskTrials_2_l,5,6
54,5fb6ae2b172cc12b1c5b3050,Group_FJ,0,89c4823ca3301fd0cfeda439ec845b239f84f4f6ea97b64b9cab832d0dca631a,1575,True,keypress,testresponse_s_F,170,['Shorter'],choice-response,Shorter,5fbc55f9be36f3ba328bd89b,single_300ms_delay_2_52,3009,137,maintaskTrials_2_s,5,2
55,5fb6ae2b172cc12b1c5b3050,Group_FJ,0,89c4823ca3301fd0cfeda439ec845b239f84f4f6ea97b64b9cab832d0dca631a,1575,False,keypress,testresponse_s_F,147,['Shorter'],choice-response,Longer,5fbc55f9be36f3ba328bd89b,single_300ms_delay_2_83,3200,138,maintaskTrials_2_s,8,3
56,5fb6ae2b172cc12b1c5b3050,Group_FJ,0,89c4823ca3301fd0cfeda439ec845b239f84f4f6ea97b64b9cab832d0dca631a,1575,True,keypress,testresponse_s_F,240,['Shorter'],choice-response,Shorter,5fbc55f9be36f3ba328bd89b,single_300ms_delay_2_91,3318,139,maintaskTrials_2_s,9,1
57,5fb6ae2b172cc12b1c5b3050,Group_FJ,0,89c4823ca3301fd0cfeda439ec845b239f84f4f6ea97b64b9cab832d0dca631a,1575,True,keypress,testresponse_l_J,158,['Longer'],choice-response,Longer,5fbc55f9be36f3ba328bd89b,single_300ms_delay_2_54,3204,140,maintaskTrials_2_l,5,4
58,5fb6ae2b172cc12b1c5b3050,Group_FJ,0,89c4823ca3301fd0cfeda439ec845b239f84f4f6ea97b64b9cab832d0dca631a,1575,False,keypress,testresponse_l_J,161,['Longer'],choice-response,Shorter,5fbc55f9be36f3ba328bd89b,single_300ms_delay_2_85,3259,141,maintaskTrials_2_l,8,5
59,5fb6ae2b172cc12b1c5b3050,Group_FJ,0,89c4823ca3301fd0cfeda439ec845b239f84f4f6ea97b64b9cab832d0dca631a,1575,False,keypress,testresponse_l_J,532,['Longer'],choice-response,Shorter,5fbc55f9be36f3ba328bd89b,single_300ms_delay_2_95,3696,142,maintaskTrials_2_l,9,5
60,5fb6ae2b172cc12b1c5b3050,Group_FJ,0,89c4823ca3301fd0cfeda439ec845b239f84f4f6ea97b64b9cab832d0dca631a,1575,False,keypress,testresponse_l_J,430,['Longer'],choice-response,Shorter,5fbc55f9be36f3ba328bd89b,single_300ms_delay_2_94,3546,143,maintaskTrials_2_l,9,4
61,5fb6ae2b172cc12b1c5b3050,Group_FJ,0,89c4823ca3301fd0cfeda439ec845b239f84f4f6ea97b64b9cab832d0dca631a,1575,False,keypress,testresponse_s_F,235,['Shorter'],choice-response,Longer,5fbc55f9be36f3ba328bd89b,single_300ms_delay_2_53,3150,144,maintaskTrials_2_s,5,3
62,5fb6ae2b172cc12b1c5b3050,Group_FJ,0,89c4823ca3301fd0cfeda439ec845b239f84f4f6ea97b64b9cab832d0dca631a,1575,False,keypress,testresponse_s_F,138,['Shorter'],choice-response,Longer,5fbc55f9be36f3ba328bd89b,single_300ms_delay_2_93,3297,145,maintaskTrials_2_s,9,3
63,5fb6ae2b172cc12b1c5b3050,Group_FJ,0,89c4823ca3301fd0cfeda439ec845b239f84f4f6ea97b64b9cab832d0dca631a,1575,False,keypress,testresponse_l_J,150,['Longer'],choice-response,Shorter,5fbc55f9be36f3ba328bd89b,single_300ms_delay_2_56,3120,146,maintaskTrials_2_l,5,6
64,5fb6ae2b172cc12b1c5b3050,Group_FJ,0,89c4823ca3301fd0cfeda439ec845b239f84f4f6ea97b64b9cab832d0dca631a,1575,False,keypress,testresponse_l_J,230,['Longer'],choice-response,Shorter,5fbc55f9be36f3ba328bd89b,single_300ms_delay_2_84,3293,147,maintaskTrials_2_l,8,4
65,5fb6ae2b172cc12b1c5b3050,Group_FJ,0,89c4823ca3301fd0cfeda439ec845b239f84f4f6ea97b64b9cab832d0dca631a,1575,True,keypress,testresponse_s_F,301,['Shorter'],choice-response,Shorter,5fbc55f9be36f3ba328bd89b,single_300ms_delay_2_92,3499,148,maintaskTrials_2_s,9,2
66,5fb6ae2b172cc12b1c5b3050,Group_FJ,0,89c4823ca3301fd0cfeda439ec845b239f84f4f6ea97b64b9cab832d0dca631a,1575,False,keypress,testresponse_l_J,235,['Longer'],choice-response,Shorter,5fbc55f9be36f3ba328bd89b,single_300ms_delay_2_55,3247,149,maintaskTrials_2_l,5,5
67,5fb6ae2b172cc12b1c5b3050,Group_FJ,0,89c4823ca3301fd0cfeda439ec845b239f84f4f6ea97b64b9cab832d0dca631a,1575,False,keypress,testresponse_l_J,1160,['Longer'],choice-response,Shorter,5fbc55f9be36f3ba328bd89b,single_300ms_delay_2_96,4311,150,maintaskTrials_2_l,9,6
68,5fb6ae2b172cc12b1c5b3050,Group_FJ,0,89c4823ca3301fd0cfeda439ec845b239f84f4f6ea97b64b9cab832d0dca631a,1575,True,keypress,testresponse_s_F,188,['Shorter'],choice-response,Shorter,5fbc55f9be36f3ba328bd89b,single_300ms_delay_2_81,3213,151,maintaskTrials_2_s,8,1
69,5fb6ae2b172cc12b1c5b3050,Group_FJ,0,89c4823ca3301fd0cfeda439ec845b239f84f4f6ea97b64b9cab832d0dca631a,1575,False,keypress,testresponse_s_F,199,['Shorter'],choice-response,Longer,5fbc55f9be36f3ba328bd89b,single_300ms_delay_2_82,3218,152,maintaskTrials_2_s,8,2
70,5fb6ae2b172cc12b1c5b3050,Group_FJ,0,89c4823ca3301fd0cfeda439ec845b239f84f4f6ea97b64b9cab832d0dca631a,1575,True,keypress,testresponse_l_J,151,['Longer'],choice-response,Longer,5fbc55f9be36f3ba328bd89b,single_300ms_delay_2_86,3188,153,maintaskTrials_2_l,8,6
71,5fb6ae2b172cc12b1c5b3050,Group_FJ,0,89c4823ca3301fd0cfeda439ec845b239f84f4f6ea97b64b9cab832d0dca631a,1575,True,keypress,testresponse_s_F,196,['Shorter'],choice-response,Shorter,5fbc55f9be36f3ba328bd89b,single_300ms_delay_2_51,3144,154,maintaskTrials_2_s,5,1
72,5fb6ae2b172cc12b1c5b3050,Group_FJ,0,89c4823ca3301fd0cfeda439ec845b239f84f4f6ea97b64b9cab832d0dca631a,1575,True,keypress,testresponse_l_J,394,['Longer'],choice-response,Longer,5fbc55f9be36f3ba328bd89b,single_300ms_delay_2_95,3503,155,maintaskTrials_2_l,9,5
73,5fb6ae2b172cc12b1c5b3050,Group_FJ,0,89c4823ca3301fd0cfeda439ec845b239f84f4f6ea97b64b9cab832d0dca631a,1575,True,keypress,testresponse_s_F,239,['Shorter'],choice-response,Shorter,5fbc55f9be36f3ba328bd89b,single_300ms_delay_2_82,3241,156,maintaskTrials_2_s,8,2
74,5fb6ae2b172cc12b1c5b3050,Group_FJ,0,89c4823ca3301fd0cfeda439ec845b239f84f4f6ea97b64b9cab832d0dca631a,1575,True,keypress,testresponse_l_J,194,['Longer'],choice-response,Longer,5fbc55f9be36f3ba328bd89b,single_300ms_delay_2_96,3338,157,maintaskTrials_2_l,9,6
75,5fb6ae2b172cc12b1c5b3050,Group_FJ,0,89c4823ca3301fd0cfeda439ec845b239f84f4f6ea97b64b9cab832d0dca631a,1575,False,keypress,testresponse_l_J,286,['Longer'],choice-response,Shorter,5fbc55f9be36f3ba328bd89b,single_300ms_delay_2_54,3250,158,maintaskTrials_2_l,5,4
76,5fb6ae2b172cc12b1c5b3050,Group_FJ,0,89c4823ca3301fd0cfeda439ec845b239f84f4f6ea97b64b9cab832d0dca631a,1575,True,keypress,testresponse_l_J,191,['Longer'],choice-response,Longer,5fbc55f9be36f3ba328bd89b,single_300ms_delay_2_94,3462,159,maintaskTrials_2_l,9,4
77,5fb6ae2b172cc12b1c5b3050,Group_FJ,0,89c4823ca3301fd0cfeda439ec845b239f84f4f6ea97b64b9cab832d0dca631a,1575,False,keypress,testresponse_l_J,178,['Longer'],choice-response,Shorter,5fbc55f9be36f3ba328bd89b,single_300ms_delay_2_84,3193,160,maintaskTrials_2_l,8,4
78,5fb6ae2b172cc12b1c5b3050,Group_FJ,0,89c4823ca3301fd0cfeda439ec845b239f84f4f6ea97b64b9cab832d0dca631a,1575,True,keypress,testresponse_s_F,406,['Shorter'],choice-response,Shorter,5fbc55f9be36f3ba328bd89b,single_300ms_delay_2_51,3305,161,maintaskTrials_2_s,5,1
79,5fb6ae2b172cc12b1c5b3050,Group_FJ,0,89c4823ca3301fd0cfeda439ec845b239f84f4f6ea97b64b9cab832d0dca631a,1575,False,keypress,testresponse_l_J,336,['Longer'],choice-response,Shorter,5fbc55f9be36f3ba328bd89b,single_300ms_delay_2_56,3416,162,maintaskTrials_2_l,5,6
80,5fb6ae2b172cc12b1c5b3050,Group_FJ,0,89c4823ca3301fd0cfeda439ec845b239f84f4f6ea97b64b9cab832d0dca631a,1575,True,keypress,testresponse_s_F,143,['Shorter'],choice-response,Shorter,5fbc55f9be36f3ba328bd89b,single_300ms_delay_2_53,3046,163,maintaskTrials_2_s,5,3
81,5fb6ae2b172cc12b1c5b3050,Group_FJ,0,89c4823ca3301fd0cfeda439ec845b239f84f4f6ea97b64b9cab832d0dca631a,1575,True,keypress,testresponse_s_F,176,['Shorter'],choice-response,Shorter,5fbc55f9be36f3ba328bd89b,single_300ms_delay_2_93,3317,164,maintaskTrials_2_s,9,3
82,5fb6ae2b172cc12b1c5b3050,Group_FJ,0,89c4823ca3301fd0cfeda439ec845b239f84f4f6ea97b64b9cab832d0dca631a,1575,False,keypress,testresponse_l_J,162,['Longer'],choice-response,Shorter,5fbc55f9be36f3ba328bd89b,single_300ms_delay_2_55,3121,165,maintaskTrials_2_l,5,5
83,5fb6ae2b172cc12b1c5b3050,Group_FJ,0,89c4823ca3301fd0cfeda439ec845b239f84f4f6ea97b64b9cab832d0dca631a,1575,False,keypress,testresponse_l_J,543,['Longer'],choice-response,Shorter,5fbc55f9be36f3ba328bd89b,single_300ms_delay_2_86,3660,166,maintaskTrials_2_l,8,6
84,5fb6ae2b172cc12b1c5b3050,Group_FJ,0,89c4823ca3301fd0cfeda439ec845b239f84f4f6ea97b64b9cab832d0dca631a,1575,True,keypress,testresponse_s_F,577,['Shorter'],choice-response,Shorter,5fbc55f9be36f3ba328bd89b,single_300ms_delay_2_83,3577,167,maintaskTrials_2_s,8,3
85,5fb6ae2b172cc12b1c5b3050,Group_FJ,0,89c4823ca3301fd0cfeda439ec845b239f84f4f6ea97b64b9cab832d0dca631a,1575,False,keypress,testresponse_s_F,152,['Shorter'],choice-response,Longer,5fbc55f9be36f3ba328bd89b,single_300ms_delay_2_92,3279,168,maintaskTrials_2_s,9,2
86,5fb6ae2b172cc12b1c5b3050,Group_FJ,0,89c4823ca3301fd0cfeda439ec845b239f84f4f6ea97b64b9cab832d0dca631a,1575,False,keypress,testresponse_s_F,205,['Shorter'],choice-response,Longer,5fbc55f9be36f3ba328bd89b,single_300ms_delay_2_52,3121,169,maintaskTrials_2_s,5,2
87,5fb6ae2b172cc12b1c5b3050,Group_FJ,0,89c4823ca3301fd0cfeda439ec845b239f84f4f6ea97b64b9cab832d0dca631a,1575,False,keypress,testresponse_s_F,294,['Shorter'],choice-response,Longer,5fbc55f9be36f3ba328bd89b,single_300ms_delay_2_91,3363,170,maintaskTrials_2_s,9,1
88,5fb6ae2b172cc12b1c5b3050,Group_FJ,0,89c4823ca3301fd0cfeda439ec845b239f84f4f6ea97b64b9cab832d0dca631a,1575,True,keypress,testresponse_l_J,215,['Longer'],choice-response,Longer,5fbc55f9be36f3ba328bd89b,single_300ms_delay_2_85,3293,171,maintaskTrials_2_l,8,5
89,5fb6ae2b172cc12b1c5b3050,Group_FJ,0,89c4823ca3301fd0cfeda439ec845b239f84f4f6ea97b64b9cab832d0dca631a,1575,False,keypress,testresponse_s_F,454,['Shorter'],choice-response,Longer,5fbc55f9be36f3ba328bd89b,single_300ms_delay_2_81,3404,172,maintaskTrials_2_s,8,1
90,5fb6ae2b172cc12b1c5b3050,Group_FJ,0,89c4823ca3301fd0cfeda439ec845b239f84f4f6ea97b64b9cab832d0dca631a,1575,False,keypress,testresponse_s_F,1125,['Shorter'],choice-response,Longer,5fbc55f9be36f3ba328bd89b,single_300ms_delay_2_52,4069,173,maintaskTrials_2_s,5,2
91,5fb6ae2b172cc12b1c5b3050,Group_FJ,0,89c4823ca3301fd0cfeda439ec845b239f84f4f6ea97b64b9cab832d0dca631a,1575,False,keypress,testresponse_l_J,1011,['Longer'],choice-response,Shorter,5fbc55f9be36f3ba328bd89b,single_300ms_delay_2_84,4083,174,maintaskTrials_2_l,8,4
92,5fb6ae2b172cc12b1c5b3050,Group_FJ,0,89c4823ca3301fd0cfeda439ec845b239f84f4f6ea97b64b9cab832d0dca631a,1575,True,keypress,testresponse_s_F,166,['Shorter'],choice-response,Shorter,5fbc55f9be36f3ba328bd89b,single_300ms_delay_2_53,3129,175,maintaskTrials_2_s,5,3
93,5fb6ae2b172cc12b1c5b3050,Group_FJ,0,89c4823ca3301fd0cfeda439ec845b239f84f4f6ea97b64b9cab832d0dca631a,1575,True,keypress,testresponse_l_J,153,['Longer'],choice-response,Longer,5fbc55f9be36f3ba328bd89b,single_300ms_delay_2_96,3308,176,maintaskTrials_2_l,9,6
94,5fb6ae2b172cc12b1c5b3050,Group_FJ,0,89c4823ca3301fd0cfeda439ec845b239f84f4f6ea97b64b9cab832d0dca631a,1575,True,keypress,testresponse_l_J,200,['Longer'],choice-response,Longer,5fbc55f9be36f3ba328bd89b,single_300ms_delay_2_86,3312,177,maintaskTrials_2_l,8,6
95,5fb6ae2b172cc12b1c5b3050,Group_FJ,0,89c4823ca3301fd0cfeda439ec845b239f84f4f6ea97b64b9cab832d0dca631a,1575,False,keypress,testresponse_s_F,220,['Shorter'],choice-response,Longer,5fbc55f9be36f3ba328bd89b,single_300ms_delay_2_81,3225,178,maintaskTrials_2_s,8,1
96,5fb6ae2b172cc12b1c5b3050,Group_FJ,0,89c4823ca3301fd0cfeda439ec845b239f84f4f6ea97b64b9cab832d0dca631a,1575,True,keypress,testresponse_s_F,345,['Shorter'],choice-response,Shorter,5fbc55f9be36f3ba328bd89b,single_300ms_delay_2_51,3289,179,maintaskTrials_2_s,5,1
97,5fb6ae2b172cc12b1c5b3050,Group_FJ,0,89c4823ca3301fd0cfeda439ec845b239f84f4f6ea97b64b9cab832d0dca631a,1575,False,keypress,testresponse_s_F,278,['Shorter'],choice-response,Longer,5fbc55f9be36f3ba328bd89b,single_300ms_delay_2_92,3377,180,maintaskTrials_2_s,9,2
98,5fb6ae2b172cc12b1c5b3050,Group_FJ,0,89c4823ca3301fd0cfeda439ec845b239f84f4f6ea97b64b9cab832d0dca631a,1575,True,keypress,testresponse_l_J,293,['Longer'],choice-response,Longer,5fbc55f9be36f3ba328bd89b,single_300ms_delay_2_94,3420,181,maintaskTrials_2_l,9,4
99,5fb6ae2b172cc12b1c5b3050,Group_FJ,0,89c4823ca3301fd0cfeda439ec845b239f84f4f6ea97b64b9cab832d0dca631a,1575,False,keypress,testresponse_s_F,245,['Shorter'],choice-response,Longer,5fbc55f9be36f3ba328bd89b,single_300ms_delay_2_91,3329,182,maintaskTrials_2_s,9,1
100,5fb6ae2b172cc12b1c5b3050,Group_FJ,0,89c4823ca3301fd0cfeda439ec845b239f84f4f6ea97b64b9cab832d0dca631a,1575,False,keypress,testresponse_s_F,344,['Shorter'],choice-response,Longer,5fbc55f9be36f3ba328bd89b,single_300ms_delay_2_93,3486,183,maintaskTrials_2_s,9,3
101,5fb6ae2b172cc12b1c5b3050,Group_FJ,0,89c4823ca3301fd0cfeda439ec845b239f84f4f6ea97b64b9cab832d0dca631a,1575,True,keypress,testresponse_l_J,255,['Longer'],choice-response,Longer,5fbc55f9be36f3ba328bd89b,single_300ms_delay_2_95,3426,184,maintaskTrials_2_l,9,5
102,5fb6ae2b172cc12b1c5b3050,Group_FJ,0,89c4823ca3301fd0cfeda439ec845b239f84f4f6ea97b64b9cab832d0dca631a,1575,True,keypress,testresponse_l_J,348,['Longer'],choice-response,Longer,5fbc55f9be36f3ba328bd89b,single_300ms_delay_2_85,3425,185,maintaskTrials_2_l,8,5
103,5fb6ae2b172cc12b1c5b3050,Group_FJ,0,89c4823ca3301fd0cfeda439ec845b239f84f4f6ea97b64b9cab832d0dca631a,1575,False,keypress,testresponse_l_J,380,['Longer'],choice-response,Shorter,5fbc55f9be36f3ba328bd89b,single_300ms_delay_2_55,3345,186,maintaskTrials_2_l,5,5
104,5fb6ae2b172cc12b1c5b3050,Group_FJ,0,89c4823ca3301fd0cfeda439ec845b239f84f4f6ea97b64b9cab832d0dca631a,1575,True,keypress,testresponse_s_F,378,['Shorter'],choice-response,Shorter,5fbc55f9be36f3ba328bd89b,single_300ms_delay_2_83,3449,187,maintaskTrials_2_s,8,3
105,5fb6ae2b172cc12b1c5b3050,Group_FJ,0,89c4823ca3301fd0cfeda439ec845b239f84f4f6ea97b64b9cab832d0dca631a,1575,False,keypress,testresponse_l_J,539,['Longer'],choice-response,Shorter,5fbc55f9be36f3ba328bd89b,single_300ms_delay_2_56,3475,188,maintaskTrials_2_l,5,6
106,5fb6ae2b172cc12b1c5b3050,Group_FJ,0,89c4823ca3301fd0cfeda439ec845b239f84f4f6ea97b64b9cab832d0dca631a,1575,True,keypress,testresponse_s_F,665,['Shorter'],choice-response,Shorter,5fbc55f9be36f3ba328bd89b,single_300ms_delay_2_82,3668,189,maintaskTrials_2_s,8,2
107,5fb6ae2b172cc12b1c5b3050,Group_FJ,0,89c4823ca3301fd0cfeda439ec845b239f84f4f6ea97b64b9cab832d0dca631a,1575,True,keypress,testresponse_l_J,283,['Longer'],choice-response,Longer,5fbc55f9be36f3ba328bd89b,single_300ms_delay_2_54,3258,190,maintaskTrials_2_l,5,4
108,5fb6ae2b172cc12b1c5b3050,Group_FJ,0,89c4823ca3301fd0cfeda439ec845b239f84f4f6ea97b64b9cab832d0dca631a,1575,False,keypress,testresponse_l_J,899,['Longer'],choice-response,Shorter,5fbc55f9be36f3ba328bd89b,single_300ms_delay_2_54,3893,191,maintaskTrials_2_l,5,4
109,5fb6ae2b172cc12b1c5b3050,Group_FJ,0,89c4823ca3301fd0cfeda439ec845b239f84f4f6ea97b64b9cab832d0dca631a,1575,False,keypress,testresponse_s_F,810,['Shorter'],choice-response,Longer,5fbc55f9be36f3ba328bd89b,single_300ms_delay_2_92,3917,192,maintaskTrials_2_s,9,2
110,5fb6ae2b172cc12b1c5b3050,Group_FJ,0,89c4823ca3301fd0cfeda439ec845b239f84f4f6ea97b64b9cab832d0dca631a,1575,True,keypress,testresponse_l_J,698,['Longer'],choice-response,Longer,5fbc55f9be36f3ba328bd89b,single_300ms_delay_2_96,4199,193,maintaskTrials_2_l,9,6
111,5fb6ae2b172cc12b1c5b3050,Group_FJ,0,89c4823ca3301fd0cfeda439ec845b239f84f4f6ea97b64b9cab832d0dca631a,1575,True,keypress,testresponse_s_F,193,['Shorter'],choice-response,Shorter,5fbc55f9be36f3ba328bd89b,single_300ms_delay_2_53,3111,194,maintaskTrials_2_s,5,3
112,5fb6ae2b172cc12b1c5b3050,Group_FJ,0,89c4823ca3301fd0cfeda439ec845b239f84f4f6ea97b64b9cab832d0dca631a,1575,True,keypress,testresponse_l_J,418,['Longer'],choice-response,Longer,5fbc55f9be36f3ba328bd89b,single_300ms_delay_2_94,3572,195,maintaskTrials_2_l,9,4
113,5fb6ae2b172cc12b1c5b3050,Group_FJ,0,89c4823ca3301fd0cfeda439ec845b239f84f4f6ea97b64b9cab832d0dca631a,1575,True,keypress,testresponse_l_J,209,['Longer'],choice-response,Longer,5fbc55f9be36f3ba328bd89b,single_300ms_delay_2_95,3449,196,maintaskTrials_2_l,9,5
114,5fb6ae2b172cc12b1c5b3050,Group_FJ,0,89c4823ca3301fd0cfeda439ec845b239f84f4f6ea97b64b9cab832d0dca631a,1575,True,keypress,testresponse_s_F,273,['Shorter'],choice-response,Shorter,5fbc55f9be36f3ba328bd89b,single_300ms_delay_2_83,3258,197,maintaskTrials_2_s,8,3
115,5fb6ae2b172cc12b1c5b3050,Group_FJ,0,89c4823ca3301fd0cfeda439ec845b239f84f4f6ea97b64b9cab832d0dca631a,1575,False,keypress,testresponse_s_F,306,['Shorter'],choice-response,Longer,5fbc55f9be36f3ba328bd89b,single_300ms_delay_2_52,3255,198,maintaskTrials_2_s,5,2
116,5fb6ae2b172cc12b1c5b3050,Group_FJ,0,89c4823ca3301fd0cfeda439ec845b239f84f4f6ea97b64b9cab832d0dca631a,1575,True,keypress,testresponse_l_J,278,['Longer'],choice-response,Longer,5fbc55f9be36f3ba328bd89b,single_300ms_delay_2_86,3308,199,maintaskTrials_2_l,8,6
117,5fb6ae2b172cc12b1c5b3050,Group_FJ,0,89c4823ca3301fd0cfeda439ec845b239f84f4f6ea97b64b9cab832d0dca631a,1575,False,keypress,testresponse_l_J,212,['Longer'],choice-response,Shorter,5fbc55f9be36f3ba328bd89b,single_300ms_delay_2_84,3237,200,maintaskTrials_2_l,8,4
118,5fb6ae2b172cc12b1c5b3050,Group_FJ,0,89c4823ca3301fd0cfeda439ec845b239f84f4f6ea97b64b9cab832d0dca631a,1575,False,keypress,testresponse_s_F,320,['Shorter'],choice-response,Longer,5fbc55f9be36f3ba328bd89b,single_300ms_delay_2_91,3588,201,maintaskTrials_2_s,9,1
119,5fb6ae2b172cc12b1c5b3050,Group_FJ,0,89c4823ca3301fd0cfeda439ec845b239f84f4f6ea97b64b9cab832d0dca631a,1575,False,keypress,testresponse_s_F,202,['Shorter'],choice-response,Longer,5fbc55f9be36f3ba328bd89b,single_300ms_delay_2_51,3139,202,maintaskTrials_2_s,5,1
120,5fb6ae2b172cc12b1c5b3050,Group_FJ,0,89c4823ca3301fd0cfeda439ec845b239f84f4f6ea97b64b9cab832d0dca631a,1575,True,keypress,testresponse_l_J,735,['Longer'],choice-response,Longer,5fbc55f9be36f3ba328bd89b,single_300ms_delay_2_56,3693,203,maintaskTrials_2_l,5,6
121,5fb6ae2b172cc12b1c5b3050,Group_FJ,0,89c4823ca3301fd0cfeda439ec845b239f84f4f6ea97b64b9cab832d0dca631a,1575,True,keypress,testresponse_l_J,328,['Longer'],choice-response,Longer,5fbc55f9be36f3ba328bd89b,single_300ms_delay_2_85,3357,204,maintaskTrials_2_l,8,5
122,5fb6ae2b172cc12b1c5b3050,Group_FJ,0,89c4823ca3301fd0cfeda439ec845b239f84f4f6ea97b64b9cab832d0dca631a,1575,True,keypress,testresponse_s_F,621,['Shorter'],choice-response,Shorter,5fbc55f9be36f3ba328bd89b,single_300ms_delay_2_81,3594,205,maintaskTrials_2_s,8,1
123,5fb6ae2b172cc12b1c5b3050,Group_FJ,0,89c4823ca3301fd0cfeda439ec845b239f84f4f6ea97b64b9cab832d0dca631a,1575,False,keypress,testresponse_s_F,156,['Shorter'],choice-response,Longer,5fbc55f9be36f3ba328bd89b,single_300ms_delay_2_93,3280,206,maintaskTrials_2_s,9,3
124,5fb6ae2b172cc12b1c5b3050,Group_FJ,0,89c4823ca3301fd0cfeda439ec845b239f84f4f6ea97b64b9cab832d0dca631a,1575,False,keypress,testresponse_l_J,511,['Longer'],choice-response,Shorter,5fbc55f9be36f3ba328bd89b,single_300ms_delay_2_55,3622,207,maintaskTrials_2_l,5,5
125,5fb6ae2b172cc12b1c5b3050,Group_FJ,0,89c4823ca3301fd0cfeda439ec845b239f84f4f6ea97b64b9cab832d0dca631a,1575,True,keypress,testresponse_s_F,1342,['Shorter'],choice-response,Shorter,5fbc55f9be36f3ba328bd89b,single_300ms_delay_2_82,4313,208,maintaskTrials_2_s,8,2
126,5fb6ae2b172cc12b1c5b3050,Group_FJ,0,89c4823ca3301fd0cfeda439ec845b239f84f4f6ea97b64b9cab832d0dca631a,1575,True,keypress,testresponse_l_J,307,['Longer'],choice-response,Longer,5fbc55f9be36f3ba328bd89b,single_300ms_delay_2_95,3457,209,maintaskTrials_2_l,9,5
127,5fb6ae2b172cc12b1c5b3050,Group_FJ,0,89c4823ca3301fd0cfeda439ec845b239f84f4f6ea97b64b9cab832d0dca631a,1575,False,keypress,testresponse_s_F,271,['Shorter'],choice-response,Longer,5fbc55f9be36f3ba328bd89b,single_300ms_delay_2_93,3464,210,maintaskTrials_2_s,9,3
128,5fb6ae2b172cc12b1c5b3050,Group_FJ,0,89c4823ca3301fd0cfeda439ec845b239f84f4f6ea97b64b9cab832d0dca631a,1575,True,keypress,testresponse_l_J,264,['Longer'],choice-response,Longer,5fbc55f9be36f3ba328bd89b,single_300ms_delay_2_55,3282,211,maintaskTrials_2_l,5,5
129,5fb6ae2b172cc12b1c5b3050,Group_FJ,0,89c4823ca3301fd0cfeda439ec845b239f84f4f6ea97b64b9cab832d0dca631a,1575,True,keypress,testresponse_l_J,356,['Longer'],choice-response,Longer,5fbc55f9be36f3ba328bd89b,single_300ms_delay_2_94,3518,212,maintaskTrials_2_l,9,4
130,5fb6ae2b172cc12b1c5b3050,Group_FJ,0,89c4823ca3301fd0cfeda439ec845b239f84f4f6ea97b64b9cab832d0dca631a,1575,False,keypress,testresponse_s_F,689,['Shorter'],choice-response,Longer,5fbc55f9be36f3ba328bd89b,single_300ms_delay_2_91,3810,213,maintaskTrials_2_s,9,1
131,5fb6ae2b172cc12b1c5b3050,Group_FJ,0,89c4823ca3301fd0cfeda439ec845b239f84f4f6ea97b64b9cab832d0dca631a,1575,True,keypress,testresponse_s_F,523,['Shorter'],choice-response,Shorter,5fbc55f9be36f3ba328bd89b,single_300ms_delay_2_83,3581,214,maintaskTrials_2_s,8,3
132,5fb6ae2b172cc12b1c5b3050,Group_FJ,0,89c4823ca3301fd0cfeda439ec845b239f84f4f6ea97b64b9cab832d0dca631a,1575,True,keypress,testresponse_s_F,425,['Shorter'],choice-response,Shorter,5fbc55f9be36f3ba328bd89b,single_300ms_delay_2_51,3349,215,maintaskTrials_2_s,5,1
133,5fb6ae2b172cc12b1c5b3050,Group_FJ,0,89c4823ca3301fd0cfeda439ec845b239f84f4f6ea97b64b9cab832d0dca631a,1575,True,keypress,testresponse_s_F,598,['Shorter'],choice-response,Shorter,5fbc55f9be36f3ba328bd89b,single_300ms_delay_2_53,3568,216,maintaskTrials_2_s,5,3
134,5fb6ae2b172cc12b1c5b3050,Group_FJ,0,89c4823ca3301fd0cfeda439ec845b239f84f4f6ea97b64b9cab832d0dca631a,1575,False,keypress,testresponse_s_F,214,['Shorter'],choice-response,Longer,5fbc55f9be36f3ba328bd89b,single_300ms_delay_2_92,3312,217,maintaskTrials_2_s,9,2
135,5fb6ae2b172cc12b1c5b3050,Group_FJ,0,89c4823ca3301fd0cfeda439ec845b239f84f4f6ea97b64b9cab832d0dca631a,1575,False,keypress,testresponse_s_F,294,['Shorter'],choice-response,Longer,5fbc55f9be36f3ba328bd89b,single_300ms_delay_2_82,3308,218,maintaskTrials_2_s,8,2
136,5fb6ae2b172cc12b1c5b3050,Group_FJ,0,89c4823ca3301fd0cfeda439ec845b239f84f4f6ea97b64b9cab832d0dca631a,1575,True,keypress,testresponse_s_F,477,['Shorter'],choice-response,Shorter,5fbc55f9be36f3ba328bd89b,single_300ms_delay_2_81,3465,219,maintaskTrials_2_s,8,1
137,5fb6ae2b172cc12b1c5b3050,Group_FJ,0,89c4823ca3301fd0cfeda439ec845b239f84f4f6ea97b64b9cab832d0dca631a,1575,True,keypress,testresponse_l_J,161,['Longer'],choice-response,Longer,5fbc55f9be36f3ba328bd89b,single_300ms_delay_2_54,3094,220,maintaskTrials_2_l,5,4
138,5fb6ae2b172cc12b1c5b3050,Group_FJ,0,89c4823ca3301fd0cfeda439ec845b239f84f4f6ea97b64b9cab832d0dca631a,1575,False,keypress,testresponse_l_J,469,['Longer'],choice-response,Shorter,5fbc55f9be36f3ba328bd89b,single_300ms_delay_2_56,3494,221,maintaskTrials_2_l,5,6
139,5fb6ae2b172cc12b1c5b3050,Group_FJ,0,89c4823ca3301fd0cfeda439ec845b239f84f4f6ea97b64b9cab832d0dca631a,1575,False,keypress,testresponse_s_F,395,['Shorter'],choice-response,Longer,5fbc55f9be36f3ba328bd89b,single_300ms_delay_2_52,3371,222,maintaskTrials_2_s,5,2
140,5fb6ae2b172cc12b1c5b3050,Group_FJ,0,89c4823ca3301fd0cfeda439ec845b239f84f4f6ea97b64b9cab832d0dca631a,1575,True,keypress,testresponse_l_J,195,['Longer'],choice-response,Longer,5fbc55f9be36f3ba328bd89b,single_300ms_delay_2_96,3380,223,maintaskTrials_2_l,9,6
141,5fb6ae2b172cc12b1c5b3050,Group_FJ,0,89c4823ca3301fd0cfeda439ec845b239f84f4f6ea97b64b9cab832d0dca631a,1575,True,keypress,testresponse_l_J,238,['Longer'],choice-response,Longer,5fbc55f9be36f3ba328bd89b,single_300ms_delay_2_86,3289,224,maintaskTrials_2_l,8,6
142,5fb6ae2b172cc12b1c5b3050,Group_FJ,0,89c4823ca3301fd0cfeda439ec845b239f84f4f6ea97b64b9cab832d0dca631a,1575,True,keypress,testresponse_l_J,197,['Longer'],choice-response,Longer,5fbc55f9be36f3ba328bd89b,single_300ms_delay_2_84,3237,225,maintaskTrials_2_l,8,4
143,5fb6ae2b172cc12b1c5b3050,Group_FJ,0,89c4823ca3301fd0cfeda439ec845b239f84f4f6ea97b64b9cab832d0dca631a,1575,True,keypress,testresponse_l_J,293,['Longer'],choice-response,Longer,5fbc55f9be36f3ba328bd89b,single_300ms_delay_2_85,3354,226,maintaskTrials_2_l,8,5
144,5fb6ae2b172cc12b1c5b3050,Group_FJ,0,89c4823ca3301fd0cfeda439ec845b239f84f4f6ea97b64b9cab832d0dca631a,1575,False,keypress,testresponse_l_J,942,['Longer'],choice-response,Shorter,5fbc55f9be36f3ba328bd89b,single_300ms_delay_2_96,4146,227,maintaskTrials_2_l,9,6
145,5fb6ae2b172cc12b1c5b3050,Group_FJ,0,89c4823ca3301fd0cfeda439ec845b239f84f4f6ea97b64b9cab832d0dca631a,1575,False,keypress,testresponse_l_J,268,['Longer'],choice-response,Shorter,5fbc55f9be36f3ba328bd89b,single_300ms_delay_2_56,3558,228,maintaskTrials_2_l,5,6
146,5fb6ae2b172cc12b1c5b3050,Group_FJ,0,89c4823ca3301fd0cfeda439ec845b239f84f4f6ea97b64b9cab832d0dca631a,1575,True,keypress,testresponse_s_F,546,['Shorter'],choice-response,Shorter,5fbc55f9be36f3ba328bd89b,single_300ms_delay_2_52,3542,229,maintaskTrials_2_s,5,2
147,5fb6ae2b172cc12b1c5b3050,Group_FJ,0,89c4823ca3301fd0cfeda439ec845b239f84f4f6ea97b64b9cab832d0dca631a,1575,False,keypress,testresponse_s_F,141,['Shorter'],choice-response,Longer,5fbc55f9be36f3ba328bd89b,single_300ms_delay_2_81,3118,230,maintaskTrials_2_s,8,1
148,5fb6ae2b172cc12b1c5b3050,Group_FJ,0,89c4823ca3301fd0cfeda439ec845b239f84f4f6ea97b64b9cab832d0dca631a,1575,False,keypress,testresponse_s_F,207,['Shorter'],choice-response,Longer,5fbc55f9be36f3ba328bd89b,single_300ms_delay_2_93,3380,231,maintaskTrials_2_s,9,3
149,5fb6ae2b172cc12b1c5b3050,Group_FJ,0,89c4823ca3301fd0cfeda439ec845b239f84f4f6ea97b64b9cab832d0dca631a,1575,True,keypress,testresponse_l_J,581,['Longer'],choice-response,Longer,5fbc55f9be36f3ba328bd89b,single_300ms_delay_2_85,3662,232,maintaskTrials_2_l,8,5
150,5fb6ae2b172cc12b1c5b3050,Group_FJ,0,89c4823ca3301fd0cfeda439ec845b239f84f4f6ea97b64b9cab832d0dca631a,1575,False,keypress,testresponse_s_F,393,['Shorter'],choice-response,Longer,5fbc55f9be36f3ba328bd89b,single_300ms_delay_2_83,3478,233,maintaskTrials_2_s,8,3
151,5fb6ae2b172cc12b1c5b3050,Group_FJ,0,89c4823ca3301fd0cfeda439ec845b239f84f4f6ea97b64b9cab832d0dca631a,1575,True,keypress,testresponse_l_J,363,['Longer'],choice-response,Longer,5fbc55f9be36f3ba328bd89b,single_300ms_delay_2_95,3535,234,maintaskTrials_2_l,9,5
152,5fb6ae2b172cc12b1c5b3050,Group_FJ,0,89c4823ca3301fd0cfeda439ec845b239f84f4f6ea97b64b9cab832d0dca631a,1575,True,keypress,testresponse_l_J,256,['Longer'],choice-response,Longer,5fbc55f9be36f3ba328bd89b,single_300ms_delay_2_84,3290,235,maintaskTrials_2_l,8,4
153,5fb6ae2b172cc12b1c5b3050,Group_FJ,0,89c4823ca3301fd0cfeda439ec845b239f84f4f6ea97b64b9cab832d0dca631a,1575,True,keypress,testresponse_s_F,224,['Shorter'],choice-response,Shorter,5fbc55f9be36f3ba328bd89b,single_300ms_delay_2_53,3267,236,maintaskTrials_2_s,5,3
154,5fb6ae2b172cc12b1c5b3050,Group_FJ,0,89c4823ca3301fd0cfeda439ec845b239f84f4f6ea97b64b9cab832d0dca631a,1575,True,keypress,testresponse_s_F,358,['Shorter'],choice-response,Shorter,5fbc55f9be36f3ba328bd89b,single_300ms_delay_2_91,3527,237,maintaskTrials_2_s,9,1
155,5fb6ae2b172cc12b1c5b3050,Group_FJ,0,89c4823ca3301fd0cfeda439ec845b239f84f4f6ea97b64b9cab832d0dca631a,1575,True,keypress,testresponse_l_J,426,['Longer'],choice-response,Longer,5fbc55f9be36f3ba328bd89b,single_300ms_delay_2_86,3534,238,maintaskTrials_2_l,8,6
156,5fb6ae2b172cc12b1c5b3050,Group_FJ,0,89c4823ca3301fd0cfeda439ec845b239f84f4f6ea97b64b9cab832d0dca631a,1575,True,keypress,testresponse_s_F,672,['Shorter'],choice-response,Shorter,5fbc55f9be36f3ba328bd89b,single_300ms_delay_2_92,3784,239,maintaskTrials_2_s,9,2
157,5fb6ae2b172cc12b1c5b3050,Group_FJ,0,89c4823ca3301fd0cfeda439ec845b239f84f4f6ea97b64b9cab832d0dca631a,1575,True,keypress,testresponse_s_F,710,['Shorter'],choice-response,Shorter,5fbc55f9be36f3ba328bd89b,single_300ms_delay_2_51,3554,240,maintaskTrials_2_s,5,1
158,5fb6ae2b172cc12b1c5b3050,Group_FJ,0,89c4823ca3301fd0cfeda439ec845b239f84f4f6ea97b64b9cab832d0dca631a,1575,True,keypress,testresponse_l_J,185,['Longer'],choice-response,Longer,5fbc55f9be36f3ba328bd89b,single_300ms_delay_2_94,3353,241,maintaskTrials_2_l,9,4
159,5fb6ae2b172cc12b1c5b3050,Group_FJ,0,89c4823ca3301fd0cfeda439ec845b239f84f4f6ea97b64b9cab832d0dca631a,1575,False,keypress,testresponse_l_J,558,['Longer'],choice-response,Shorter,5fbc55f9be36f3ba328bd89b,single_300ms_delay_2_54,3510,242,maintaskTrials_2_l,5,4
160,5fb6ae2b172cc12b1c5b3050,Group_FJ,0,89c4823ca3301fd0cfeda439ec845b239f84f4f6ea97b64b9cab832d0dca631a,1575,True,keypress,testresponse_s_F,387,['Shorter'],choice-response,Shorter,5fbc55f9be36f3ba328bd89b,single_300ms_delay_2_82,3354,243,maintaskTrials_2_s,8,2
161,5fb6ae2b172cc12b1c5b3050,Group_FJ,0,89c4823ca3301fd0cfeda439ec845b239f84f4f6ea97b64b9cab832d0dca631a,1575,False,keypress,testresponse_l_J,315,['Longer'],choice-response,Shorter,5fbc55f9be36f3ba328bd89b,single_300ms_delay_2_55,3305,244,maintaskTrials_2_l,5,5
162,5fb6ae2b172cc12b1c5b3050,Group_FJ,0,89c4823ca3301fd0cfeda439ec845b239f84f4f6ea97b64b9cab832d0dca631a,1575,False,keypress,testresponse_l_J,975,['Longer'],choice-response,Shorter,5fbc55f9be36f3ba328bd89b,single_300ms_delay_2_85,3999,245,maintaskTrials_2_l,8,5
163,5fb6ae2b172cc12b1c5b3050,Group_FJ,0,89c4823ca3301fd0cfeda439ec845b239f84f4f6ea97b64b9cab832d0dca631a,1575,True,keypress,testresponse_s_F,434,['Shorter'],choice-response,Shorter,5fbc55f9be36f3ba328bd89b,single_300ms_delay_2_93,3572,246,maintaskTrials_2_s,9,3
164,5fb6ae2b172cc12b1c5b3050,Group_FJ,0,89c4823ca3301fd0cfeda439ec845b239f84f4f6ea97b64b9cab832d0dca631a,1575,False,keypress,testresponse_l_J,214,['Longer'],choice-response,Shorter,5fbc55f9be36f3ba328bd89b,single_300ms_delay_2_86,3280,247,maintaskTrials_2_l,8,6
165,5fb6ae2b172cc12b1c5b3050,Group_FJ,0,89c4823ca3301fd0cfeda439ec845b239f84f4f6ea97b64b9cab832d0dca631a,1575,True,keypress,testresponse_s_F,223,['Shorter'],choice-response,Shorter,5fbc55f9be36f3ba328bd89b,single_300ms_delay_2_53,3137,248,maintaskTrials_2_s,5,3
166,5fb6ae2b172cc12b1c5b3050,Group_FJ,0,89c4823ca3301fd0cfeda439ec845b239f84f4f6ea97b64b9cab832d0dca631a,1575,True,keypress,testresponse_s_F,278,['Shorter'],choice-response,Shorter,5fbc55f9be36f3ba328bd89b,single_300ms_delay_2_83,3332,249,maintaskTrials_2_s,8,3
167,5fb6ae2b172cc12b1c5b3050,Group_FJ,0,89c4823ca3301fd0cfeda439ec845b239f84f4f6ea97b64b9cab832d0dca631a,1575,True,keypress,testresponse_s_F,499,['Shorter'],choice-response,Shorter,5fbc55f9be36f3ba328bd89b,single_300ms_delay_2_91,3613,250,maintaskTrials_2_s,9,1
168,5fb6ae2b172cc12b1c5b3050,Group_FJ,0,89c4823ca3301fd0cfeda439ec845b239f84f4f6ea97b64b9cab832d0dca631a,1575,True,keypress,testresponse_l_J,261,['Longer'],choice-response,Longer,5fbc55f9be36f3ba328bd89b,single_300ms_delay_2_84,3307,251,maintaskTrials_2_l,8,4
169,5fb6ae2b172cc12b1c5b3050,Group_FJ,0,89c4823ca3301fd0cfeda439ec845b239f84f4f6ea97b64b9cab832d0dca631a,1575,False,keypress,testresponse_l_J,115,['Longer'],choice-response,Shorter,5fbc55f9be36f3ba328bd89b,single_300ms_delay_2_55,3138,252,maintaskTrials_2_l,5,5
170,5fb6ae2b172cc12b1c5b3050,Group_FJ,0,89c4823ca3301fd0cfeda439ec845b239f84f4f6ea97b64b9cab832d0dca631a,1575,True,keypress,testresponse_s_F,696,['Shorter'],choice-response,Shorter,5fbc55f9be36f3ba328bd89b,single_300ms_delay_2_92,3799,253,maintaskTrials_2_s,9,2
171,5fb6ae2b172cc12b1c5b3050,Group_FJ,0,89c4823ca3301fd0cfeda439ec845b239f84f4f6ea97b64b9cab832d0dca631a,1575,True,keypress,testresponse_s_F,446,['Shorter'],choice-response,Shorter,5fbc55f9be36f3ba328bd89b,single_300ms_delay_2_81,3604,254,maintaskTrials_2_s,8,1
172,5fb6ae2b172cc12b1c5b3050,Group_FJ,0,89c4823ca3301fd0cfeda439ec845b239f84f4f6ea97b64b9cab832d0dca631a,1575,True,keypress,testresponse_l_J,106,['Longer'],choice-response,Longer,5fbc55f9be36f3ba328bd89b,single_300ms_delay_2_95,3338,255,maintaskTrials_2_l,9,5
173,5fb6ae2b172cc12b1c5b3050,Group_FJ,0,89c4823ca3301fd0cfeda439ec845b239f84f4f6ea97b64b9cab832d0dca631a,1575,False,keypress,testresponse_l_J,623,['Longer'],choice-response,Shorter,5fbc55f9be36f3ba328bd89b,single_300ms_delay_2_56,3596,256,maintaskTrials_2_l,5,6
174,5fb6ae2b172cc12b1c5b3050,Group_FJ,0,89c4823ca3301fd0cfeda439ec845b239f84f4f6ea97b64b9cab832d0dca631a,1575,True,keypress,testresponse_s_F,446,['Shorter'],choice-response,Shorter,5fbc55f9be36f3ba328bd89b,single_300ms_delay_2_51,3368,257,maintaskTrials_2_s,5,1
175,5fb6ae2b172cc12b1c5b3050,Group_FJ,0,89c4823ca3301fd0cfeda439ec845b239f84f4f6ea97b64b9cab832d0dca631a,1575,True,keypress,testresponse_l_J,1106,['Longer'],choice-response,Longer,5fbc55f9be36f3ba328bd89b,single_300ms_delay_2_96,4358,258,maintaskTrials_2_l,9,6
176,5fb6ae2b172cc12b1c5b3050,Group_FJ,0,89c4823ca3301fd0cfeda439ec845b239f84f4f6ea97b64b9cab832d0dca631a,1575,True,keypress,testresponse_s_F,474,['Shorter'],choice-response,Shorter,5fbc55f9be36f3ba328bd89b,single_300ms_delay_2_52,3450,259,maintaskTrials_2_s,5,2
177,5fb6ae2b172cc12b1c5b3050,Group_FJ,0,89c4823ca3301fd0cfeda439ec845b239f84f4f6ea97b64b9cab832d0dca631a,1575,False,keypress,testresponse_l_J,159,['Longer'],choice-response,Shorter,5fbc55f9be36f3ba328bd89b,single_300ms_delay_2_94,3298,260,maintaskTrials_2_l,9,4
178,5fb6ae2b172cc12b1c5b3050,Group_FJ,0,89c4823ca3301fd0cfeda439ec845b239f84f4f6ea97b64b9cab832d0dca631a,1575,False,keypress,testresponse_s_F,322,['Shorter'],choice-response,Longer,5fbc55f9be36f3ba328bd89b,single_300ms_delay_2_82,3277,261,maintaskTrials_2_s,8,2
179,5fb6ae2b172cc12b1c5b3050,Group_FJ,0,89c4823ca3301fd0cfeda439ec845b239f84f4f6ea97b64b9cab832d0dca631a,1575,False,keypress,testresponse_l_J,234,['Longer'],choice-response,Shorter,5fbc55f9be36f3ba328bd89b,single_300ms_delay_2_54,3216,262,maintaskTrials_2_l,5,4
180,5fb6ae2b172cc12b1c5b3050,Group_FJ,0,89c4823ca3301fd0cfeda439ec845b239f84f4f6ea97b64b9cab832d0dca631a,1575,True,keypress,testresponse_s_F,389,['Shorter'],choice-response,Shorter,5fbc55f9be36f3ba328bd89b,single_300ms_delay_2_83,3426,263,maintaskTrials_2_s,8,3
181,5fb6ae2b172cc12b1c5b3050,Group_FJ,0,89c4823ca3301fd0cfeda439ec845b239f84f4f6ea97b64b9cab832d0dca631a,1575,False,keypress,testresponse_s_F,236,['Shorter'],choice-response,Longer,5fbc55f9be36f3ba328bd89b,single_300ms_delay_2_92,3330,264,maintaskTrials_2_s,9,2
182,5fb6ae2b172cc12b1c5b3050,Group_FJ,0,89c4823ca3301fd0cfeda439ec845b239f84f4f6ea97b64b9cab832d0dca631a,1575,True,keypress,testresponse_s_F,470,['Shorter'],choice-response,Shorter,5fbc55f9be36f3ba328bd89b,single_300ms_delay_2_93,3603,265,maintaskTrials_2_s,9,3
183,5fb6ae2b172cc12b1c5b3050,Group_FJ,0,89c4823ca3301fd0cfeda439ec845b239f84f4f6ea97b64b9cab832d0dca631a,1575,False,keypress,testresponse_l_J,289,['Longer'],choice-response,Shorter,5fbc55f9be36f3ba328bd89b,single_300ms_delay_2_56,3274,266,maintaskTrials_2_l,5,6
184,5fb6ae2b172cc12b1c5b3050,Group_FJ,0,89c4823ca3301fd0cfeda439ec845b239f84f4f6ea97b64b9cab832d0dca631a,1575,False,keypress,testresponse_l_J,530,['Longer'],choice-response,Shorter,5fbc55f9be36f3ba328bd89b,single_300ms_delay_2_96,3643,267,maintaskTrials_2_l,9,6
185,5fb6ae2b172cc12b1c5b3050,Group_FJ,0,89c4823ca3301fd0cfeda439ec845b239f84f4f6ea97b64b9cab832d0dca631a,1575,True,keypress,testresponse_l_J,204,['Longer'],choice-response,Longer,5fbc55f9be36f3ba328bd89b,single_300ms_delay_2_84,3198,268,maintaskTrials_2_l,8,4
186,5fb6ae2b172cc12b1c5b3050,Group_FJ,0,89c4823ca3301fd0cfeda439ec845b239f84f4f6ea97b64b9cab832d0dca631a,1575,False,keypress,testresponse_l_J,514,['Longer'],choice-response,Shorter,5fbc55f9be36f3ba328bd89b,single_300ms_delay_2_94,3683,269,maintaskTrials_2_l,9,4
187,5fb6ae2b172cc12b1c5b3050,Group_FJ,0,89c4823ca3301fd0cfeda439ec845b239f84f4f6ea97b64b9cab832d0dca631a,1575,True,keypress,testresponse_l_J,497,['Longer'],choice-response,Longer,5fbc55f9be36f3ba328bd89b,single_300ms_delay_2_86,3617,270,maintaskTrials_2_l,8,6
188,5fb6ae2b172cc12b1c5b3050,Group_FJ,0,89c4823ca3301fd0cfeda439ec845b239f84f4f6ea97b64b9cab832d0dca631a,1575,True,keypress,testresponse_s_F,269,['Shorter'],choice-response,Shorter,5fbc55f9be36f3ba328bd89b,single_300ms_delay_2_52,3186,271,maintaskTrials_2_s,5,2
189,5fb6ae2b172cc12b1c5b3050,Group_FJ,0,89c4823ca3301fd0cfeda439ec845b239f84f4f6ea97b64b9cab832d0dca631a,1575,True,keypress,testresponse_s_F,303,['Shorter'],choice-response,Shorter,5fbc55f9be36f3ba328bd89b,single_300ms_delay_2_91,3351,272,maintaskTrials_2_s,9,1
190,5fb6ae2b172cc12b1c5b3050,Group_FJ,0,89c4823ca3301fd0cfeda439ec845b239f84f4f6ea97b64b9cab832d0dca631a,1575,False,keypress,testresponse_l_J,455,['Longer'],choice-response,Shorter,5fbc55f9be36f3ba328bd89b,single_300ms_delay_2_55,3466,273,maintaskTrials_2_l,5,5
191,5fb6ae2b172cc12b1c5b3050,Group_FJ,0,89c4823ca3301fd0cfeda439ec845b239f84f4f6ea97b64b9cab832d0dca631a,1575,False,keypress,testresponse_s_F,367,['Shorter'],choice-response,Longer,5fbc55f9be36f3ba328bd89b,single_300ms_delay_2_53,3327,274,maintaskTrials_2_s,5,3
192,5fb6ae2b172cc12b1c5b3050,Group_FJ,0,89c4823ca3301fd0cfeda439ec845b239f84f4f6ea97b64b9cab832d0dca631a,1575,True,keypress,testresponse_l_J,64,['Longer'],choice-response,Longer,5fbc55f9be36f3ba328bd89b,single_300ms_delay_2_85,3080,275,maintaskTrials_2_l,8,5
193,5fb6ae2b172cc12b1c5b3050,Group_FJ,0,89c4823ca3301fd0cfeda439ec845b239f84f4f6ea97b64b9cab832d0dca631a,1575,True,keypress,testresponse_l_J,166,['Longer'],choice-response,Longer,5fbc55f9be36f3ba328bd89b,single_300ms_delay_2_95,3330,276,maintaskTrials_2_l,9,5
194,5fb6ae2b172cc12b1c5b3050,Group_FJ,0,89c4823ca3301fd0cfeda439ec845b239f84f4f6ea97b64b9cab832d0dca631a,1575,True,keypress,testresponse_s_F,688,['Shorter'],choice-response,Shorter,5fbc55f9be36f3ba328bd89b,single_300ms_delay_2_82,3709,277,maintaskTrials_2_s,8,2
195,5fb6ae2b172cc12b1c5b3050,Group_FJ,0,89c4823ca3301fd0cfeda439ec845b239f84f4f6ea97b64b9cab832d0dca631a,1575,True,keypress,testresponse_s_F,361,['Shorter'],choice-response,Shorter,5fbc55f9be36f3ba328bd89b,single_300ms_delay_2_81,3396,278,maintaskTrials_2_s,8,1
196,5fb6ae2b172cc12b1c5b3050,Group_FJ,0,89c4823ca3301fd0cfeda439ec845b239f84f4f6ea97b64b9cab832d0dca631a,1575,True,keypress,testresponse_s_F,233,['Shorter'],choice-response,Shorter,5fbc55f9be36f3ba328bd89b,single_300ms_delay_2_51,3221,279,maintaskTrials_2_s,5,1
197,5fb6ae2b172cc12b1c5b3050,Group_FJ,0,89c4823ca3301fd0cfeda439ec845b239f84f4f6ea97b64b9cab832d0dca631a,1575,False,keypress,testresponse_l_J,34,['Longer'],choice-response,Shorter,5fbc55f9be36f3ba328bd89b,single_300ms_delay_2_54,3019,280,maintaskTrials_2_l,5,4
198,5fb6ae2b172cc12b1c5b3050,Group_FJ,0,89c4823ca3301fd0cfeda439ec845b239f84f4f6ea97b64b9cab832d0dca631a,1575,False,keypress,testresponse_s_F,190,['Shorter'],choice-response,Longer,5fbc55f9be36f3ba328bd89b,single_300ms_delay_2_83,3230,281,maintaskTrials_2_s,8,3
199,5fb6ae2b172cc12b1c5b3050,Group_FJ,0,89c4823ca3301fd0cfeda439ec845b239f84f4f6ea97b64b9cab832d0dca631a,1575,True,keypress,testresponse_s_F,430,['Shorter'],choice-response,Shorter,5fbc55f9be36f3ba328bd89b,single_300ms_delay_2_51,3352,282,maintaskTrials_2_s,5,1
200,5fb6ae2b172cc12b1c5b3050,Group_FJ,0,89c4823ca3301fd0cfeda439ec845b239f84f4f6ea97b64b9cab832d0dca631a,1575,True,keypress,testresponse_l_J,220,['Longer'],choice-response,Longer,5fbc55f9be36f3ba328bd89b,single_300ms_delay_2_96,3385,283,maintaskTrials_2_l,9,6
201,5fb6ae2b172cc12b1c5b3050,Group_FJ,0,89c4823ca3301fd0cfeda439ec845b239f84f4f6ea97b64b9cab832d0dca631a,1575,True,keypress,testresponse_s_F,338,['Shorter'],choice-response,Shorter,5fbc55f9be36f3ba328bd89b,single_300ms_delay_2_81,3352,284,maintaskTrials_2_s,8,1
202,5fb6ae2b172cc12b1c5b3050,Group_FJ,0,89c4823ca3301fd0cfeda439ec845b239f84f4f6ea97b64b9cab832d0dca631a,1575,False,keypress,testresponse_l_J,214,['Longer'],choice-response,Shorter,5fbc55f9be36f3ba328bd89b,single_300ms_delay_2_84,3315,285,maintaskTrials_2_l,8,4
203,5fb6ae2b172cc12b1c5b3050,Group_FJ,0,89c4823ca3301fd0cfeda439ec845b239f84f4f6ea97b64b9cab832d0dca631a,1575,True,keypress,testresponse_s_F,695,['Shorter'],choice-response,Shorter,5fbc55f9be36f3ba328bd89b,single_300ms_delay_2_92,3792,286,maintaskTrials_2_s,9,2
204,5fb6ae2b172cc12b1c5b3050,Group_FJ,0,89c4823ca3301fd0cfeda439ec845b239f84f4f6ea97b64b9cab832d0dca631a,1575,False,keypress,testresponse_l_J,446,['Longer'],choice-response,Shorter,5fbc55f9be36f3ba328bd89b,single_300ms_delay_2_56,3473,287,maintaskTrials_2_l,5,6
205,5fb6ae2b172cc12b1c5b3050,Group_FJ,0,89c4823ca3301fd0cfeda439ec845b239f84f4f6ea97b64b9cab832d0dca631a,1575,True,keypress,testresponse_s_F,513,['Shorter'],choice-response,Shorter,5fbc55f9be36f3ba328bd89b,single_300ms_delay_2_53,3469,288,maintaskTrials_2_s,5,3
206,5fb6ae2b172cc12b1c5b3050,Group_FJ,0,89c4823ca3301fd0cfeda439ec845b239f84f4f6ea97b64b9cab832d0dca631a,1575,True,keypress,testresponse_s_F,310,['Shorter'],choice-response,Shorter,5fbc55f9be36f3ba328bd89b,single_300ms_delay_2_82,3294,289,maintaskTrials_2_s,8,2
207,5fb6ae2b172cc12b1c5b3050,Group_FJ,0,89c4823ca3301fd0cfeda439ec845b239f84f4f6ea97b64b9cab832d0dca631a,1575,True,keypress,testresponse_l_J,267,['Longer'],choice-response,Longer,5fbc55f9be36f3ba328bd89b,single_300ms_delay_2_95,3437,290,maintaskTrials_2_l,9,5
208,5fb6ae2b172cc12b1c5b3050,Group_FJ,0,89c4823ca3301fd0cfeda439ec845b239f84f4f6ea97b64b9cab832d0dca631a,1575,True,keypress,testresponse_s_F,90,['Shorter'],choice-response,Shorter,5fbc55f9be36f3ba328bd89b,single_300ms_delay_2_91,3264,291,maintaskTrials_2_s,9,1
209,5fb6ae2b172cc12b1c5b3050,Group_FJ,0,89c4823ca3301fd0cfeda439ec845b239f84f4f6ea97b64b9cab832d0dca631a,1575,True,keypress,testresponse_s_F,569,['Shorter'],choice-response,Shorter,5fbc55f9be36f3ba328bd89b,single_300ms_delay_2_93,3686,292,maintaskTrials_2_s,9,3
210,5fb6ae2b172cc12b1c5b3050,Group_FJ,0,89c4823ca3301fd0cfeda439ec845b239f84f4f6ea97b64b9cab832d0dca631a,1575,True,keypress,testresponse_l_J,381,['Longer'],choice-response,Longer,5fbc55f9be36f3ba328bd89b,single_300ms_delay_2_86,3449,293,maintaskTrials_2_l,8,6
211,5fb6ae2b172cc12b1c5b3050,Group_FJ,0,89c4823ca3301fd0cfeda439ec845b239f84f4f6ea97b64b9cab832d0dca631a,1575,False,keypress,testresponse_l_J,388,['Longer'],choice-response,Shorter,5fbc55f9be36f3ba328bd89b,single_300ms_delay_2_55,3281,294,maintaskTrials_2_l,5,5
212,5fb6ae2b172cc12b1c5b3050,Group_FJ,0,89c4823ca3301fd0cfeda439ec845b239f84f4f6ea97b64b9cab832d0dca631a,1575,True,keypress,testresponse_s_F,543,['Shorter'],choice-response,Shorter,5fbc55f9be36f3ba328bd89b,single_300ms_delay_2_52,3484,295,maintaskTrials_2_s,5,2
213,5fb6ae2b172cc12b1c5b3050,Group_FJ,0,89c4823ca3301fd0cfeda439ec845b239f84f4f6ea97b64b9cab832d0dca631a,1575,False,keypress,testresponse_l_J,786,['Longer'],choice-response,Shorter,5fbc55f9be36f3ba328bd89b,single_300ms_delay_2_85,3979,296,maintaskTrials_2_l,8,5
214,5fb6ae2b172cc12b1c5b3050,Group_FJ,0,89c4823ca3301fd0cfeda439ec845b239f84f4f6ea97b64b9cab832d0dca631a,1575,True,keypress,testresponse_l_J,357,['Longer'],choice-response,Longer,5fbc55f9be36f3ba328bd89b,single_300ms_delay_2_94,3495,297,maintaskTrials_2_l,9,4
215,5fb6ae2b172cc12b1c5b3050,Group_FJ,0,89c4823ca3301fd0cfeda439ec845b239f84f4f6ea97b64b9cab832d0dca631a,1575,False,keypress,testresponse_l_J,507,['Longer'],choice-response,Shorter,5fbc55f9be36f3ba328bd89b,single_300ms_delay_2_54,3437,298,maintaskTrials_2_l,5,4
216,5fb6ae2b172cc12b1c5b3050,Group_JF,0,321a94d0894495314659e26b1bf0d29f557550c296794f045574423977a2c8cb,1647,True,keypress,testresponse_l_F,689,['Longer'],choice-response,Longer,5fbc55f9be36f3ba328bd89b,single_300ms_delay_2_95,4013,83,maintaskTrials_2_l_reversekey,9,5
217,5fb6ae2b172cc12b1c5b3050,Group_JF,0,321a94d0894495314659e26b1bf0d29f557550c296794f045574423977a2c8cb,1647,False,keypress,testresponse_s_J,331,['Shorter'],choice-response,Longer,5fbc55f9be36f3ba328bd89b,single_300ms_delay_2_52,3352,84,maintaskTrials_2_s_reversekey,5,2
218,5fb6ae2b172cc12b1c5b3050,Group_JF,0,321a94d0894495314659e26b1bf0d29f557550c296794f045574423977a2c8cb,1647,False,keypress,testresponse_l_F,1287,['Longer'],choice-response,Shorter,5fbc55f9be36f3ba328bd89b,single_300ms_delay_2_55,4336,85,maintaskTrials_2_l_reversekey,5,5
219,5fb6ae2b172cc12b1c5b3050,Group_JF,0,321a94d0894495314659e26b1bf0d29f557550c296794f045574423977a2c8cb,1647,True,keypress,testresponse_l_F,515,['Longer'],choice-response,Longer,5fbc55f9be36f3ba328bd89b,single_300ms_delay_2_94,3776,86,maintaskTrials_2_l_reversekey,9,4
220,5fb6ae2b172cc12b1c5b3050,Group_JF,0,321a94d0894495314659e26b1bf0d29f557550c296794f045574423977a2c8cb,1647,True,keypress,testresponse_l_F,435,['Longer'],choice-response,Longer,5fbc55f9be36f3ba328bd89b,single_300ms_delay_2_85,4164,87,maintaskTrials_2_l_reversekey,8,5
221,5fb6ae2b172cc12b1c5b3050,Group_JF,0,321a94d0894495314659e26b1bf0d29f557550c296794f045574423977a2c8cb,1647,True,keypress,testresponse_s_J,561,['Shorter'],choice-response,Shorter,5fbc55f9be36f3ba328bd89b,single_300ms_delay_2_82,3647,88,maintaskTrials_2_s_reversekey,8,2
222,5fb6ae2b172cc12b1c5b3050,Group_JF,0,321a94d0894495314659e26b1bf0d29f557550c296794f045574423977a2c8cb,1647,True,keypress,testresponse_s_J,745,['Shorter'],choice-response,Shorter,5fbc55f9be36f3ba328bd89b,single_300ms_delay_2_51,3768,89,maintaskTrials_2_s_reversekey,5,1
223,5fb6ae2b172cc12b1c5b3050,Group_JF,0,321a94d0894495314659e26b1bf0d29f557550c296794f045574423977a2c8cb,1647,True,keypress,testresponse_s_J,600,['Shorter'],choice-response,Shorter,5fbc55f9be36f3ba328bd89b,single_300ms_delay_2_53,3638,90,maintaskTrials_2_s_reversekey,5,3
224,5fb6ae2b172cc12b1c5b3050,Group_JF,0,321a94d0894495314659e26b1bf0d29f557550c296794f045574423977a2c8cb,1647,True,keypress,testresponse_l_F,401,['Longer'],choice-response,Longer,5fbc55f9be36f3ba328bd89b,single_300ms_delay_2_56,4157,91,maintaskTrials_2_l_reversekey,5,6
225,5fb6ae2b172cc12b1c5b3050,Group_JF,0,321a94d0894495314659e26b1bf0d29f557550c296794f045574423977a2c8cb,1647,False,keypress,testresponse_s_J,696,['Shorter'],choice-response,Longer,5fbc55f9be36f3ba328bd89b,single_300ms_delay_2_83,4650,92,maintaskTrials_2_s_reversekey,8,3
226,5fb6ae2b172cc12b1c5b3050,Group_JF,0,321a94d0894495314659e26b1bf0d29f557550c296794f045574423977a2c8cb,1647,True,keypress,testresponse_s_J,1273,['Shorter'],choice-response,Shorter,5fbc55f9be36f3ba328bd89b,single_300ms_delay_2_91,4505,93,maintaskTrials_2_s_reversekey,9,1
227,5fb6ae2b172cc12b1c5b3050,Group_JF,0,321a94d0894495314659e26b1bf0d29f557550c296794f045574423977a2c8cb,1647,True,keypress,testresponse_s_J,559,['Shorter'],choice-response,Shorter,5fbc55f9be36f3ba328bd89b,single_300ms_delay_2_92,4288,94,maintaskTrials_2_s_reversekey,9,2
228,5fb6ae2b172cc12b1c5b3050,Group_JF,0,321a94d0894495314659e26b1bf0d29f557550c296794f045574423977a2c8cb,1647,True,keypress,testresponse_l_F,477,['Longer'],choice-response,Longer,5fbc55f9be36f3ba328bd89b,single_300ms_delay_2_54,3963,95,maintaskTrials_2_l_reversekey,5,4
229,5fb6ae2b172cc12b1c5b3050,Group_JF,0,321a94d0894495314659e26b1bf0d29f557550c296794f045574423977a2c8cb,1647,False,keypress,testresponse_s_J,553,['Shorter'],choice-response,Longer,5fbc55f9be36f3ba328bd89b,single_300ms_delay_2_93,3807,96,maintaskTrials_2_s_reversekey,9,3
230,5fb6ae2b172cc12b1c5b3050,Group_JF,0,321a94d0894495314659e26b1bf0d29f557550c296794f045574423977a2c8cb,1647,True,keypress,testresponse_l_F,1204,['Longer'],choice-response,Longer,5fbc55f9be36f3ba328bd89b,single_300ms_delay_2_84,4357,97,maintaskTrials_2_l_reversekey,8,4
231,5fb6ae2b172cc12b1c5b3050,Group_JF,0,321a94d0894495314659e26b1bf0d29f557550c296794f045574423977a2c8cb,1647,True,keypress,testresponse_s_J,374,['Shorter'],choice-response,Shorter,5fbc55f9be36f3ba328bd89b,single_300ms_delay_2_81,3471,98,maintaskTrials_2_s_reversekey,8,1
232,5fb6ae2b172cc12b1c5b3050,Group_JF,0,321a94d0894495314659e26b1bf0d29f557550c296794f045574423977a2c8cb,1647,False,keypress,testresponse_l_F,362,['Longer'],choice-response,Shorter,5fbc55f9be36f3ba328bd89b,single_300ms_delay_2_86,3543,99,maintaskTrials_2_l_reversekey,8,6
233,5fb6ae2b172cc12b1c5b3050,Group_JF,0,321a94d0894495314659e26b1bf0d29f557550c296794f045574423977a2c8cb,1647,False,keypress,testresponse_l_F,682,['Longer'],choice-response,Shorter,5fbc55f9be36f3ba328bd89b,single_300ms_delay_2_96,4178,100,maintaskTrials_2_l_reversekey,9,6
234,5fb6ae2b172cc12b1c5b3050,Group_JF,0,321a94d0894495314659e26b1bf0d29f557550c296794f045574423977a2c8cb,1647,True,keypress,testresponse_l_F,471,['Longer'],choice-response,Longer,5fbc55f9be36f3ba328bd89b,single_300ms_delay_2_95,3712,101,maintaskTrials_2_l_reversekey,9,5
235,5fb6ae2b172cc12b1c5b3050,Group_JF,0,321a94d0894495314659e26b1bf0d29f557550c296794f045574423977a2c8cb,1647,True,keypress,testresponse_s_J,612,['Shorter'],choice-response,Shorter,5fbc55f9be36f3ba328bd89b,single_300ms_delay_2_83,3724,102,maintaskTrials_2_s_reversekey,8,3
236,5fb6ae2b172cc12b1c5b3050,Group_JF,0,321a94d0894495314659e26b1bf0d29f557550c296794f045574423977a2c8cb,1647,True,keypress,testresponse_l_F,371,['Longer'],choice-response,Longer,5fbc55f9be36f3ba328bd89b,single_300ms_delay_2_55,3444,103,maintaskTrials_2_l_reversekey,5,5
237,5fb6ae2b172cc12b1c5b3050,Group_JF,0,321a94d0894495314659e26b1bf0d29f557550c296794f045574423977a2c8cb,1647,False,keypress,testresponse_l_F,398,['Longer'],choice-response,Shorter,5fbc55f9be36f3ba328bd89b,single_300ms_delay_2_96,3610,104,maintaskTrials_2_l_reversekey,9,6
238,5fb6ae2b172cc12b1c5b3050,Group_JF,0,321a94d0894495314659e26b1bf0d29f557550c296794f045574423977a2c8cb,1647,True,keypress,testresponse_s_J,562,['Shorter'],choice-response,Shorter,5fbc55f9be36f3ba328bd89b,single_300ms_delay_2_81,3657,105,maintaskTrials_2_s_reversekey,8,1
239,5fb6ae2b172cc12b1c5b3050,Group_JF,0,321a94d0894495314659e26b1bf0d29f557550c296794f045574423977a2c8cb,1647,True,keypress,testresponse_s_J,1016,['Shorter'],choice-response,Shorter,5fbc55f9be36f3ba328bd89b,single_300ms_delay_2_82,4091,106,maintaskTrials_2_s_reversekey,8,2
240,5fb6ae2b172cc12b1c5b3050,Group_JF,0,321a94d0894495314659e26b1bf0d29f557550c296794f045574423977a2c8cb,1647,False,keypress,testresponse_s_J,289,['Shorter'],choice-response,Longer,5fbc55f9be36f3ba328bd89b,single_300ms_delay_2_51,3778,107,maintaskTrials_2_s_reversekey,5,1
241,5fb6ae2b172cc12b1c5b3050,Group_JF,0,321a94d0894495314659e26b1bf0d29f557550c296794f045574423977a2c8cb,1647,False,keypress,testresponse_l_F,551,['Longer'],choice-response,Shorter,5fbc55f9be36f3ba328bd89b,single_300ms_delay_2_86,3690,108,maintaskTrials_2_l_reversekey,8,6
242,5fb6ae2b172cc12b1c5b3050,Group_JF,0,321a94d0894495314659e26b1bf0d29f557550c296794f045574423977a2c8cb,1647,False,keypress,testresponse_s_J,777,['Shorter'],choice-response,Longer,5fbc55f9be36f3ba328bd89b,single_300ms_delay_2_91,3958,109,maintaskTrials_2_s_reversekey,9,1
243,5fb6ae2b172cc12b1c5b3050,Group_JF,0,321a94d0894495314659e26b1bf0d29f557550c296794f045574423977a2c8cb,1647,True,keypress,testresponse_l_F,989,['Longer'],choice-response,Longer,5fbc55f9be36f3ba328bd89b,single_300ms_delay_2_56,4047,110,maintaskTrials_2_l_reversekey,5,6
244,5fb6ae2b172cc12b1c5b3050,Group_JF,0,321a94d0894495314659e26b1bf0d29f557550c296794f045574423977a2c8cb,1647,False,keypress,testresponse_l_F,500,['Longer'],choice-response,Shorter,5fbc55f9be36f3ba328bd89b,single_300ms_delay_2_94,3734,111,maintaskTrials_2_l_reversekey,9,4
245,5fb6ae2b172cc12b1c5b3050,Group_JF,0,321a94d0894495314659e26b1bf0d29f557550c296794f045574423977a2c8cb,1647,False,keypress,testresponse_s_J,537,['Shorter'],choice-response,Longer,5fbc55f9be36f3ba328bd89b,single_300ms_delay_2_52,3541,112,maintaskTrials_2_s_reversekey,5,2
246,5fb6ae2b172cc12b1c5b3050,Group_JF,0,321a94d0894495314659e26b1bf0d29f557550c296794f045574423977a2c8cb,1647,True,keypress,testresponse_l_F,883,['Longer'],choice-response,Longer,5fbc55f9be36f3ba328bd89b,single_300ms_delay_2_85,4011,113,maintaskTrials_2_l_reversekey,8,5
247,5fb6ae2b172cc12b1c5b3050,Group_JF,0,321a94d0894495314659e26b1bf0d29f557550c296794f045574423977a2c8cb,1647,True,keypress,testresponse_s_J,332,['Shorter'],choice-response,Shorter,5fbc55f9be36f3ba328bd89b,single_300ms_delay_2_92,3542,114,maintaskTrials_2_s_reversekey,9,2
248,5fb6ae2b172cc12b1c5b3050,Group_JF,0,321a94d0894495314659e26b1bf0d29f557550c296794f045574423977a2c8cb,1647,False,keypress,testresponse_s_J,807,['Shorter'],choice-response,Longer,5fbc55f9be36f3ba328bd89b,single_300ms_delay_2_53,3834,115,maintaskTrials_2_s_reversekey,5,3
249,5fb6ae2b172cc12b1c5b3050,Group_JF,0,321a94d0894495314659e26b1bf0d29f557550c296794f045574423977a2c8cb,1647,False,keypress,testresponse_l_F,269,['Longer'],choice-response,Shorter,5fbc55f9be36f3ba328bd89b,single_300ms_delay_2_84,3414,116,maintaskTrials_2_l_reversekey,8,4
250,5fb6ae2b172cc12b1c5b3050,Group_JF,0,321a94d0894495314659e26b1bf0d29f557550c296794f045574423977a2c8cb,1647,False,keypress,testresponse_s_J,623,['Shorter'],choice-response,Longer,5fbc55f9be36f3ba328bd89b,single_300ms_delay_2_93,3834,117,maintaskTrials_2_s_reversekey,9,3
251,5fb6ae2b172cc12b1c5b3050,Group_JF,0,321a94d0894495314659e26b1bf0d29f557550c296794f045574423977a2c8cb,1647,True,keypress,testresponse_l_F,811,['Longer'],choice-response,Longer,5fbc55f9be36f3ba328bd89b,single_300ms_delay_2_54,3924,118,maintaskTrials_2_l_reversekey,5,4
252,5fb6ae2b172cc12b1c5b3050,Group_JF,0,321a94d0894495314659e26b1bf0d29f557550c296794f045574423977a2c8cb,1647,False,keypress,testresponse_l_F,531,['Longer'],choice-response,Shorter,5fbc55f9be36f3ba328bd89b,single_300ms_delay_2_95,4215,119,maintaskTrials_2_l_reversekey,9,5
253,5fb6ae2b172cc12b1c5b3050,Group_JF,0,321a94d0894495314659e26b1bf0d29f557550c296794f045574423977a2c8cb,1647,True,keypress,testresponse_s_J,461,['Shorter'],choice-response,Shorter,5fbc55f9be36f3ba328bd89b,single_300ms_delay_2_91,3625,120,maintaskTrials_2_s_reversekey,9,1
254,5fb6ae2b172cc12b1c5b3050,Group_JF,0,321a94d0894495314659e26b1bf0d29f557550c296794f045574423977a2c8cb,1647,True,keypress,testresponse_l_F,963,['Longer'],choice-response,Longer,5fbc55f9be36f3ba328bd89b,single_300ms_delay_2_54,3997,121,maintaskTrials_2_l_reversekey,5,4
255,5fb6ae2b172cc12b1c5b3050,Group_JF,0,321a94d0894495314659e26b1bf0d29f557550c296794f045574423977a2c8cb,1647,True,keypress,testresponse_s_J,388,['Shorter'],choice-response,Shorter,5fbc55f9be36f3ba328bd89b,single_300ms_delay_2_92,3647,122,maintaskTrials_2_s_reversekey,9,2
256,5fb6ae2b172cc12b1c5b3050,Group_JF,0,321a94d0894495314659e26b1bf0d29f557550c296794f045574423977a2c8cb,1647,False,keypress,testresponse_l_F,992,['Longer'],choice-response,Shorter,5fbc55f9be36f3ba328bd89b,single_300ms_delay_2_85,4126,123,maintaskTrials_2_l_reversekey,8,5
257,5fb6ae2b172cc12b1c5b3050,Group_JF,0,321a94d0894495314659e26b1bf0d29f557550c296794f045574423977a2c8cb,1647,False,keypress,testresponse_l_F,535,['Longer'],choice-response,Shorter,5fbc55f9be36f3ba328bd89b,single_300ms_delay_2_84,3699,124,maintaskTrials_2_l_reversekey,8,4
258,5fb6ae2b172cc12b1c5b3050,Group_JF,0,321a94d0894495314659e26b1bf0d29f557550c296794f045574423977a2c8cb,1647,True,keypress,testresponse_l_F,301,['Longer'],choice-response,Longer,5fbc55f9be36f3ba328bd89b,single_300ms_delay_2_94,3755,125,maintaskTrials_2_l_reversekey,9,4
259,5fb6ae2b172cc12b1c5b3050,Group_JF,0,321a94d0894495314659e26b1bf0d29f557550c296794f045574423977a2c8cb,1647,True,keypress,testresponse_s_J,420,['Shorter'],choice-response,Shorter,5fbc55f9be36f3ba328bd89b,single_300ms_delay_2_81,3507,126,maintaskTrials_2_s_reversekey,8,1
260,5fb6ae2b172cc12b1c5b3050,Group_JF,0,321a94d0894495314659e26b1bf0d29f557550c296794f045574423977a2c8cb,1647,False,keypress,testresponse_s_J,213,['Shorter'],choice-response,Longer,5fbc55f9be36f3ba328bd89b,single_300ms_delay_2_52,3220,127,maintaskTrials_2_s_reversekey,5,2
261,5fb6ae2b172cc12b1c5b3050,Group_JF,0,321a94d0894495314659e26b1bf0d29f557550c296794f045574423977a2c8cb,1647,True,keypress,testresponse_s_J,452,['Shorter'],choice-response,Shorter,5fbc55f9be36f3ba328bd89b,single_300ms_delay_2_51,3432,128,maintaskTrials_2_s_reversekey,5,1
262,5fb6ae2b172cc12b1c5b3050,Group_JF,0,321a94d0894495314659e26b1bf0d29f557550c296794f045574423977a2c8cb,1647,True,keypress,testresponse_l_F,260,['Longer'],choice-response,Longer,5fbc55f9be36f3ba328bd89b,single_300ms_delay_2_55,3327,129,maintaskTrials_2_l_reversekey,5,5
263,5fb6ae2b172cc12b1c5b3050,Group_JF,0,321a94d0894495314659e26b1bf0d29f557550c296794f045574423977a2c8cb,1647,True,keypress,testresponse_l_F,821,['Longer'],choice-response,Longer,5fbc55f9be36f3ba328bd89b,single_300ms_delay_2_56,3866,130,maintaskTrials_2_l_reversekey,5,6
264,5fb6ae2b172cc12b1c5b3050,Group_JF,0,321a94d0894495314659e26b1bf0d29f557550c296794f045574423977a2c8cb,1647,True,keypress,testresponse_s_J,354,['Shorter'],choice-response,Shorter,5fbc55f9be36f3ba328bd89b,single_300ms_delay_2_93,3846,131,maintaskTrials_2_s_reversekey,9,3
265,5fb6ae2b172cc12b1c5b3050,Group_JF,0,321a94d0894495314659e26b1bf0d29f557550c296794f045574423977a2c8cb,1647,False,keypress,testresponse_l_F,456,['Longer'],choice-response,Shorter,5fbc55f9be36f3ba328bd89b,single_300ms_delay_2_96,3664,132,maintaskTrials_2_l_reversekey,9,6
266,5fb6ae2b172cc12b1c5b3050,Group_JF,0,321a94d0894495314659e26b1bf0d29f557550c296794f045574423977a2c8cb,1647,True,keypress,testresponse_s_J,406,['Shorter'],choice-response,Shorter,5fbc55f9be36f3ba328bd89b,single_300ms_delay_2_53,3431,133,maintaskTrials_2_s_reversekey,5,3
267,5fb6ae2b172cc12b1c5b3050,Group_JF,0,321a94d0894495314659e26b1bf0d29f557550c296794f045574423977a2c8cb,1647,False,keypress,testresponse_l_F,302,['Longer'],choice-response,Shorter,5fbc55f9be36f3ba328bd89b,single_300ms_delay_2_86,3434,134,maintaskTrials_2_l_reversekey,8,6
268,5fb6ae2b172cc12b1c5b3050,Group_JF,0,321a94d0894495314659e26b1bf0d29f557550c296794f045574423977a2c8cb,1647,False,keypress,testresponse_s_J,259,['Shorter'],choice-response,Longer,5fbc55f9be36f3ba328bd89b,single_300ms_delay_2_82,3588,135,maintaskTrials_2_s_reversekey,8,2
269,5fb6ae2b172cc12b1c5b3050,Group_JF,0,321a94d0894495314659e26b1bf0d29f557550c296794f045574423977a2c8cb,1647,False,keypress,testresponse_s_J,1217,['Shorter'],choice-response,Longer,5fbc55f9be36f3ba328bd89b,single_300ms_delay_2_83,4323,136,maintaskTrials_2_s_reversekey,8,3
270,5fb6ae2b172cc12b1c5b3050,Group_JF,0,321a94d0894495314659e26b1bf0d29f557550c296794f045574423977a2c8cb,1647,True,keypress,testresponse_s_J,642,['Shorter'],choice-response,Shorter,5fbc55f9be36f3ba328bd89b,single_300ms_delay_2_91,3829,137,maintaskTrials_2_s_reversekey,9,1
271,5fb6ae2b172cc12b1c5b3050,Group_JF,0,321a94d0894495314659e26b1bf0d29f557550c296794f045574423977a2c8cb,1647,True,keypress,testresponse_s_J,438,['Shorter'],choice-response,Shorter,5fbc55f9be36f3ba328bd89b,single_300ms_delay_2_52,3461,138,maintaskTrials_2_s_reversekey,5,2
272,5fb6ae2b172cc12b1c5b3050,Group_JF,0,321a94d0894495314659e26b1bf0d29f557550c296794f045574423977a2c8cb,1647,True,keypress,testresponse_l_F,282,['Longer'],choice-response,Longer,5fbc55f9be36f3ba328bd89b,single_300ms_delay_2_56,3322,139,maintaskTrials_2_l_reversekey,5,6
273,5fb6ae2b172cc12b1c5b3050,Group_JF,0,321a94d0894495314659e26b1bf0d29f557550c296794f045574423977a2c8cb,1647,True,keypress,testresponse_l_F,721,['Longer'],choice-response,Longer,5fbc55f9be36f3ba328bd89b,single_300ms_delay_2_94,3931,140,maintaskTrials_2_l_reversekey,9,4
274,5fb6ae2b172cc12b1c5b3050,Group_JF,0,321a94d0894495314659e26b1bf0d29f557550c296794f045574423977a2c8cb,1647,False,keypress,testresponse_l_F,1301,['Longer'],choice-response,Shorter,5fbc55f9be36f3ba328bd89b,single_300ms_delay_2_96,4976,141,maintaskTrials_2_l_reversekey,9,6
275,5fb6ae2b172cc12b1c5b3050,Group_JF,0,321a94d0894495314659e26b1bf0d29f557550c296794f045574423977a2c8cb,1647,True,keypress,testresponse_l_F,190,['Longer'],choice-response,Longer,5fbc55f9be36f3ba328bd89b,single_300ms_delay_2_84,3322,142,maintaskTrials_2_l_reversekey,8,4
276,5fb6ae2b172cc12b1c5b3050,Group_JF,0,321a94d0894495314659e26b1bf0d29f557550c296794f045574423977a2c8cb,1647,True,keypress,testresponse_l_F,587,['Longer'],choice-response,Longer,5fbc55f9be36f3ba328bd89b,single_300ms_delay_2_86,3714,143,maintaskTrials_2_l_reversekey,8,6
277,5fb6ae2b172cc12b1c5b3050,Group_JF,0,321a94d0894495314659e26b1bf0d29f557550c296794f045574423977a2c8cb,1647,True,keypress,testresponse_l_F,502,['Longer'],choice-response,Longer,5fbc55f9be36f3ba328bd89b,single_300ms_delay_2_95,3712,144,maintaskTrials_2_l_reversekey,9,5
278,5fb6ae2b172cc12b1c5b3050,Group_JF,0,321a94d0894495314659e26b1bf0d29f557550c296794f045574423977a2c8cb,1647,True,keypress,testresponse_s_J,214,['Shorter'],choice-response,Shorter,5fbc55f9be36f3ba328bd89b,single_300ms_delay_2_81,3316,145,maintaskTrials_2_s_reversekey,8,1
279,5fb6ae2b172cc12b1c5b3050,Group_JF,0,321a94d0894495314659e26b1bf0d29f557550c296794f045574423977a2c8cb,1647,True,keypress,testresponse_s_J,974,['Shorter'],choice-response,Shorter,5fbc55f9be36f3ba328bd89b,single_300ms_delay_2_82,4047,146,maintaskTrials_2_s_reversekey,8,2
280,5fb6ae2b172cc12b1c5b3050,Group_JF,0,321a94d0894495314659e26b1bf0d29f557550c296794f045574423977a2c8cb,1647,False,keypress,testresponse_l_F,889,['Longer'],choice-response,Shorter,5fbc55f9be36f3ba328bd89b,single_300ms_delay_2_54,4479,147,maintaskTrials_2_l_reversekey,5,4
281,5fb6ae2b172cc12b1c5b3050,Group_JF,0,321a94d0894495314659e26b1bf0d29f557550c296794f045574423977a2c8cb,1647,True,keypress,testresponse_l_F,251,['Longer'],choice-response,Longer,5fbc55f9be36f3ba328bd89b,single_300ms_delay_2_55,3292,148,maintaskTrials_2_l_reversekey,5,5
282,5fb6ae2b172cc12b1c5b3050,Group_JF,0,321a94d0894495314659e26b1bf0d29f557550c296794f045574423977a2c8cb,1647,True,keypress,testresponse_s_J,521,['Shorter'],choice-response,Shorter,5fbc55f9be36f3ba328bd89b,single_300ms_delay_2_83,3631,149,maintaskTrials_2_s_reversekey,8,3
283,5fb6ae2b172cc12b1c5b3050,Group_JF,0,321a94d0894495314659e26b1bf0d29f557550c296794f045574423977a2c8cb,1647,False,keypress,testresponse_s_J,170,['Shorter'],choice-response,Longer,5fbc55f9be36f3ba328bd89b,single_300ms_delay_2_51,3213,150,maintaskTrials_2_s_reversekey,5,1
284,5fb6ae2b172cc12b1c5b3050,Group_JF,0,321a94d0894495314659e26b1bf0d29f557550c296794f045574423977a2c8cb,1647,False,keypress,testresponse_l_F,281,['Longer'],choice-response,Shorter,5fbc55f9be36f3ba328bd89b,single_300ms_delay_2_85,3415,151,maintaskTrials_2_l_reversekey,8,5
285,5fb6ae2b172cc12b1c5b3050,Group_JF,0,321a94d0894495314659e26b1bf0d29f557550c296794f045574423977a2c8cb,1647,False,keypress,testresponse_s_J,232,['Shorter'],choice-response,Longer,5fbc55f9be36f3ba328bd89b,single_300ms_delay_2_93,3981,152,maintaskTrials_2_s_reversekey,9,3
286,5fb6ae2b172cc12b1c5b3050,Group_JF,0,321a94d0894495314659e26b1bf0d29f557550c296794f045574423977a2c8cb,1647,False,keypress,testresponse_s_J,425,['Shorter'],choice-response,Longer,5fbc55f9be36f3ba328bd89b,single_300ms_delay_2_53,3459,153,maintaskTrials_2_s_reversekey,5,3
287,5fb6ae2b172cc12b1c5b3050,Group_JF,0,321a94d0894495314659e26b1bf0d29f557550c296794f045574423977a2c8cb,1647,True,keypress,testresponse_s_J,522,['Shorter'],choice-response,Shorter,5fbc55f9be36f3ba328bd89b,single_300ms_delay_2_92,3718,154,maintaskTrials_2_s_reversekey,9,2
288,5fb6ae2b172cc12b1c5b3050,Group_JF,0,321a94d0894495314659e26b1bf0d29f557550c296794f045574423977a2c8cb,1647,False,keypress,testresponse_s_J,312,['Shorter'],choice-response,Longer,5fbc55f9be36f3ba328bd89b,single_300ms_delay_2_51,3299,155,maintaskTrials_2_s_reversekey,5,1
289,5fb6ae2b172cc12b1c5b3050,Group_JF,0,321a94d0894495314659e26b1bf0d29f557550c296794f045574423977a2c8cb,1647,True,keypress,testresponse_s_J,360,['Shorter'],choice-response,Shorter,5fbc55f9be36f3ba328bd89b,single_300ms_delay_2_82,3422,156,maintaskTrials_2_s_reversekey,8,2
290,5fb6ae2b172cc12b1c5b3050,Group_JF,0,321a94d0894495314659e26b1bf0d29f557550c296794f045574423977a2c8cb,1647,True,keypress,testresponse_l_F,239,['Longer'],choice-response,Longer,5fbc55f9be36f3ba328bd89b,single_300ms_delay_2_56,3308,157,maintaskTrials_2_l_reversekey,5,6
291,5fb6ae2b172cc12b1c5b3050,Group_JF,0,321a94d0894495314659e26b1bf0d29f557550c296794f045574423977a2c8cb,1647,True,keypress,testresponse_s_J,139,['Shorter'],choice-response,Shorter,5fbc55f9be36f3ba328bd89b,single_300ms_delay_2_93,3354,158,maintaskTrials_2_s_reversekey,9,3
292,5fb6ae2b172cc12b1c5b3050,Group_JF,0,321a94d0894495314659e26b1bf0d29f557550c296794f045574423977a2c8cb,1647,True,keypress,testresponse_s_J,1061,['Shorter'],choice-response,Shorter,5fbc55f9be36f3ba328bd89b,single_300ms_delay_2_92,4233,159,maintaskTrials_2_s_reversekey,9,2
293,5fb6ae2b172cc12b1c5b3050,Group_JF,0,321a94d0894495314659e26b1bf0d29f557550c296794f045574423977a2c8cb,1647,False,keypress,testresponse_s_J,209,['Shorter'],choice-response,Longer,5fbc55f9be36f3ba328bd89b,single_300ms_delay_2_81,3312,160,maintaskTrials_2_s_reversekey,8,1
294,5fb6ae2b172cc12b1c5b3050,Group_JF,0,321a94d0894495314659e26b1bf0d29f557550c296794f045574423977a2c8cb,1647,True,keypress,testresponse_l_F,573,['Longer'],choice-response,Longer,5fbc55f9be36f3ba328bd89b,single_300ms_delay_2_55,3640,161,maintaskTrials_2_l_reversekey,5,5
295,5fb6ae2b172cc12b1c5b3050,Group_JF,0,321a94d0894495314659e26b1bf0d29f557550c296794f045574423977a2c8cb,1647,True,keypress,testresponse_s_J,470,['Shorter'],choice-response,Shorter,5fbc55f9be36f3ba328bd89b,single_300ms_delay_2_91,3648,162,maintaskTrials_2_s_reversekey,9,1
296,5fb6ae2b172cc12b1c5b3050,Group_JF,0,321a94d0894495314659e26b1bf0d29f557550c296794f045574423977a2c8cb,1647,False,keypress,testresponse_s_J,312,['Shorter'],choice-response,Longer,5fbc55f9be36f3ba328bd89b,single_300ms_delay_2_53,3360,163,maintaskTrials_2_s_reversekey,5,3
297,5fb6ae2b172cc12b1c5b3050,Group_JF,0,321a94d0894495314659e26b1bf0d29f557550c296794f045574423977a2c8cb,1647,True,keypress,testresponse_s_J,272,['Shorter'],choice-response,Shorter,5fbc55f9be36f3ba328bd89b,single_300ms_delay_2_52,3269,164,maintaskTrials_2_s_reversekey,5,2
298,5fb6ae2b172cc12b1c5b3050,Group_JF,0,321a94d0894495314659e26b1bf0d29f557550c296794f045574423977a2c8cb,1647,True,keypress,testresponse_l_F,190,['Longer'],choice-response,Longer,5fbc55f9be36f3ba328bd89b,single_300ms_delay_2_94,3398,165,maintaskTrials_2_l_reversekey,9,4
299,5fb6ae2b172cc12b1c5b3050,Group_JF,0,321a94d0894495314659e26b1bf0d29f557550c296794f045574423977a2c8cb,1647,False,keypress,testresponse_s_J,639,['Shorter'],choice-response,Longer,5fbc55f9be36f3ba328bd89b,single_300ms_delay_2_83,3753,166,maintaskTrials_2_s_reversekey,8,3
300,5fb6ae2b172cc12b1c5b3050,Group_JF,0,321a94d0894495314659e26b1bf0d29f557550c296794f045574423977a2c8cb,1647,True,keypress,testresponse_l_F,1019,['Longer'],choice-response,Longer,5fbc55f9be36f3ba328bd89b,single_300ms_delay_2_96,4234,167,maintaskTrials_2_l_reversekey,9,6
301,5fb6ae2b172cc12b1c5b3050,Group_JF,0,321a94d0894495314659e26b1bf0d29f557550c296794f045574423977a2c8cb,1647,False,keypress,testresponse_l_F,2179,['Longer'],choice-response,Shorter,5fbc55f9be36f3ba328bd89b,single_300ms_delay_2_86,6219,168,maintaskTrials_2_l_reversekey,8,6
302,5fb6ae2b172cc12b1c5b3050,Group_JF,0,321a94d0894495314659e26b1bf0d29f557550c296794f045574423977a2c8cb,1647,False,keypress,testresponse_l_F,1122,['Longer'],choice-response,Shorter,5fbc55f9be36f3ba328bd89b,single_300ms_delay_2_84,4238,169,maintaskTrials_2_l_reversekey,8,4
303,5fb6ae2b172cc12b1c5b3050,Group_JF,0,321a94d0894495314659e26b1bf0d29f557550c296794f045574423977a2c8cb,1647,True,keypress,testresponse_l_F,502,['Longer'],choice-response,Longer,5fbc55f9be36f3ba328bd89b,single_300ms_delay_2_95,3719,170,maintaskTrials_2_l_reversekey,9,5
304,5fb6ae2b172cc12b1c5b3050,Group_JF,0,321a94d0894495314659e26b1bf0d29f557550c296794f045574423977a2c8cb,1647,False,keypress,testresponse_l_F,1089,['Longer'],choice-response,Shorter,5fbc55f9be36f3ba328bd89b,single_300ms_delay_2_54,4135,171,maintaskTrials_2_l_reversekey,5,4
305,5fb6ae2b172cc12b1c5b3050,Group_JF,0,321a94d0894495314659e26b1bf0d29f557550c296794f045574423977a2c8cb,1647,False,keypress,testresponse_l_F,595,['Longer'],choice-response,Shorter,5fbc55f9be36f3ba328bd89b,single_300ms_delay_2_85,3708,172,maintaskTrials_2_l_reversekey,8,5
306,5fb6ae2b172cc12b1c5b3050,Group_JF,0,321a94d0894495314659e26b1bf0d29f557550c296794f045574423977a2c8cb,1647,False,keypress,testresponse_s_J,232,['Shorter'],choice-response,Longer,5fbc55f9be36f3ba328bd89b,single_300ms_delay_2_82,3323,173,maintaskTrials_2_s_reversekey,8,2
307,5fb6ae2b172cc12b1c5b3050,Group_JF,0,321a94d0894495314659e26b1bf0d29f557550c296794f045574423977a2c8cb,1647,False,keypress,testresponse_l_F,660,['Longer'],choice-response,Shorter,5fbc55f9be36f3ba328bd89b,single_300ms_delay_2_55,3686,174,maintaskTrials_2_l_reversekey,5,5
308,5fb6ae2b172cc12b1c5b3050,Group_JF,0,321a94d0894495314659e26b1bf0d29f557550c296794f045574423977a2c8cb,1647,False,keypress,testresponse_l_F,678,['Longer'],choice-response,Shorter,5fbc55f9be36f3ba328bd89b,single_300ms_delay_2_86,4227,175,maintaskTrials_2_l_reversekey,8,6
309,5fb6ae2b172cc12b1c5b3050,Group_JF,0,321a94d0894495314659e26b1bf0d29f557550c296794f045574423977a2c8cb,1647,True,keypress,testresponse_s_J,417,['Shorter'],choice-response,Shorter,5fbc55f9be36f3ba328bd89b,single_300ms_delay_2_93,3637,176,maintaskTrials_2_s_reversekey,9,3
310,5fb6ae2b172cc12b1c5b3050,Group_JF,0,321a94d0894495314659e26b1bf0d29f557550c296794f045574423977a2c8cb,1647,True,keypress,testresponse_s_J,1054,['Shorter'],choice-response,Shorter,5fbc55f9be36f3ba328bd89b,single_300ms_delay_2_83,4166,177,maintaskTrials_2_s_reversekey,8,3
311,5fb6ae2b172cc12b1c5b3050,Group_JF,0,321a94d0894495314659e26b1bf0d29f557550c296794f045574423977a2c8cb,1647,True,keypress,testresponse_s_J,493,['Shorter'],choice-response,Shorter,5fbc55f9be36f3ba328bd89b,single_300ms_delay_2_52,3593,178,maintaskTrials_2_s_reversekey,5,2
312,5fb6ae2b172cc12b1c5b3050,Group_JF,0,321a94d0894495314659e26b1bf0d29f557550c296794f045574423977a2c8cb,1647,False,keypress,testresponse_l_F,1143,['Longer'],choice-response,Shorter,5fbc55f9be36f3ba328bd89b,single_300ms_delay_2_85,4337,179,maintaskTrials_2_l_reversekey,8,5
313,5fb6ae2b172cc12b1c5b3050,Group_JF,0,321a94d0894495314659e26b1bf0d29f557550c296794f045574423977a2c8cb,1647,True,keypress,testresponse_s_J,525,['Shorter'],choice-response,Shorter,5fbc55f9be36f3ba328bd89b,single_300ms_delay_2_91,3743,180,maintaskTrials_2_s_reversekey,9,1
314,5fb6ae2b172cc12b1c5b3050,Group_JF,0,321a94d0894495314659e26b1bf0d29f557550c296794f045574423977a2c8cb,1647,True,keypress,testresponse_l_F,323,['Longer'],choice-response,Longer,5fbc55f9be36f3ba328bd89b,single_300ms_delay_2_54,3331,181,maintaskTrials_2_l_reversekey,5,4
315,5fb6ae2b172cc12b1c5b3050,Group_JF,0,321a94d0894495314659e26b1bf0d29f557550c296794f045574423977a2c8cb,1647,True,keypress,testresponse_s_J,958,['Shorter'],choice-response,Shorter,5fbc55f9be36f3ba328bd89b,single_300ms_delay_2_53,3988,182,maintaskTrials_2_s_reversekey,5,3
316,5fb6ae2b172cc12b1c5b3050,Group_JF,0,321a94d0894495314659e26b1bf0d29f557550c296794f045574423977a2c8cb,1647,False,keypress,testresponse_l_F,1561,['Longer'],choice-response,Shorter,5fbc55f9be36f3ba328bd89b,single_300ms_delay_2_95,4799,183,maintaskTrials_2_l_reversekey,9,5
317,5fb6ae2b172cc12b1c5b3050,Group_JF,0,321a94d0894495314659e26b1bf0d29f557550c296794f045574423977a2c8cb,1647,False,keypress,testresponse_l_F,1283,['Longer'],choice-response,Shorter,5fbc55f9be36f3ba328bd89b,single_300ms_delay_2_94,5077,184,maintaskTrials_2_l_reversekey,9,4
318,5fb6ae2b172cc12b1c5b3050,Group_JF,0,321a94d0894495314659e26b1bf0d29f557550c296794f045574423977a2c8cb,1647,True,keypress,testresponse_s_J,535,['Shorter'],choice-response,Shorter,5fbc55f9be36f3ba328bd89b,single_300ms_delay_2_51,3539,185,maintaskTrials_2_s_reversekey,5,1
319,5fb6ae2b172cc12b1c5b3050,Group_JF,0,321a94d0894495314659e26b1bf0d29f557550c296794f045574423977a2c8cb,1647,False,keypress,testresponse_s_J,1369,['Shorter'],choice-response,Longer,5fbc55f9be36f3ba328bd89b,single_300ms_delay_2_92,4559,186,maintaskTrials_2_s_reversekey,9,2
320,5fb6ae2b172cc12b1c5b3050,Group_JF,0,321a94d0894495314659e26b1bf0d29f557550c296794f045574423977a2c8cb,1647,False,keypress,testresponse_l_F,951,['Longer'],choice-response,Shorter,5fbc55f9be36f3ba328bd89b,single_300ms_delay_2_84,4570,187,maintaskTrials_2_l_reversekey,8,4
321,5fb6ae2b172cc12b1c5b3050,Group_JF,0,321a94d0894495314659e26b1bf0d29f557550c296794f045574423977a2c8cb,1647,True,keypress,testresponse_l_F,581,['Longer'],choice-response,Longer,5fbc55f9be36f3ba328bd89b,single_300ms_delay_2_96,3800,188,maintaskTrials_2_l_reversekey,9,6
322,5fb6ae2b172cc12b1c5b3050,Group_JF,0,321a94d0894495314659e26b1bf0d29f557550c296794f045574423977a2c8cb,1647,True,keypress,testresponse_s_J,353,['Shorter'],choice-response,Shorter,5fbc55f9be36f3ba328bd89b,single_300ms_delay_2_81,3956,189,maintaskTrials_2_s_reversekey,8,1
323,5fb6ae2b172cc12b1c5b3050,Group_JF,0,321a94d0894495314659e26b1bf0d29f557550c296794f045574423977a2c8cb,1647,False,keypress,testresponse_l_F,832,['Longer'],choice-response,Shorter,5fbc55f9be36f3ba328bd89b,single_300ms_delay_2_56,3869,190,maintaskTrials_2_l_reversekey,5,6
324,5fb6ae2b172cc12b1c5b3050,Group_JF,0,321a94d0894495314659e26b1bf0d29f557550c296794f045574423977a2c8cb,1647,True,keypress,testresponse_s_J,584,['Shorter'],choice-response,Shorter,5fbc55f9be36f3ba328bd89b,single_300ms_delay_2_91,3758,191,maintaskTrials_2_s_reversekey,9,1
325,5fb6ae2b172cc12b1c5b3050,Group_JF,0,321a94d0894495314659e26b1bf0d29f557550c296794f045574423977a2c8cb,1647,True,keypress,testresponse_l_F,1308,['Longer'],choice-response,Longer,5fbc55f9be36f3ba328bd89b,single_300ms_delay_2_86,4497,192,maintaskTrials_2_l_reversekey,8,6
326,5fb6ae2b172cc12b1c5b3050,Group_JF,0,321a94d0894495314659e26b1bf0d29f557550c296794f045574423977a2c8cb,1647,True,keypress,testresponse_s_J,467,['Shorter'],choice-response,Shorter,5fbc55f9be36f3ba328bd89b,single_300ms_delay_2_81,3555,193,maintaskTrials_2_s_reversekey,8,1
327,5fb6ae2b172cc12b1c5b3050,Group_JF,0,321a94d0894495314659e26b1bf0d29f557550c296794f045574423977a2c8cb,1647,True,keypress,testresponse_l_F,255,['Longer'],choice-response,Longer,5fbc55f9be36f3ba328bd89b,single_300ms_delay_2_94,3472,194,maintaskTrials_2_l_reversekey,9,4
328,5fb6ae2b172cc12b1c5b3050,Group_JF,0,321a94d0894495314659e26b1bf0d29f557550c296794f045574423977a2c8cb,1647,True,keypress,testresponse_l_F,824,['Longer'],choice-response,Longer,5fbc55f9be36f3ba328bd89b,single_300ms_delay_2_85,3967,195,maintaskTrials_2_l_reversekey,8,5
329,5fb6ae2b172cc12b1c5b3050,Group_JF,0,321a94d0894495314659e26b1bf0d29f557550c296794f045574423977a2c8cb,1647,False,keypress,testresponse_l_F,577,['Longer'],choice-response,Shorter,5fbc55f9be36f3ba328bd89b,single_300ms_delay_2_96,3791,196,maintaskTrials_2_l_reversekey,9,6
330,5fb6ae2b172cc12b1c5b3050,Group_JF,0,321a94d0894495314659e26b1bf0d29f557550c296794f045574423977a2c8cb,1647,False,keypress,testresponse_l_F,601,['Longer'],choice-response,Shorter,5fbc55f9be36f3ba328bd89b,single_300ms_delay_2_95,3839,197,maintaskTrials_2_l_reversekey,9,5
331,5fb6ae2b172cc12b1c5b3050,Group_JF,0,321a94d0894495314659e26b1bf0d29f557550c296794f045574423977a2c8cb,1647,True,keypress,testresponse_l_F,277,['Longer'],choice-response,Longer,5fbc55f9be36f3ba328bd89b,single_300ms_delay_2_56,3870,198,maintaskTrials_2_l_reversekey,5,6
332,5fb6ae2b172cc12b1c5b3050,Group_JF,0,321a94d0894495314659e26b1bf0d29f557550c296794f045574423977a2c8cb,1647,False,keypress,testresponse_s_J,502,['Shorter'],choice-response,Longer,5fbc55f9be36f3ba328bd89b,single_300ms_delay_2_83,3687,199,maintaskTrials_2_s_reversekey,8,3
333,5fb6ae2b172cc12b1c5b3050,Group_JF,0,321a94d0894495314659e26b1bf0d29f557550c296794f045574423977a2c8cb,1647,True,keypress,testresponse_s_J,583,['Shorter'],choice-response,Shorter,5fbc55f9be36f3ba328bd89b,single_300ms_delay_2_93,4274,200,maintaskTrials_2_s_reversekey,9,3
334,5fb6ae2b172cc12b1c5b3050,Group_JF,0,321a94d0894495314659e26b1bf0d29f557550c296794f045574423977a2c8cb,1647,True,keypress,testresponse_s_J,1005,['Shorter'],choice-response,Shorter,5fbc55f9be36f3ba328bd89b,single_300ms_delay_2_51,4002,201,maintaskTrials_2_s_reversekey,5,1
335,5fb6ae2b172cc12b1c5b3050,Group_JF,0,321a94d0894495314659e26b1bf0d29f557550c296794f045574423977a2c8cb,1647,True,keypress,testresponse_l_F,435,['Longer'],choice-response,Longer,5fbc55f9be36f3ba328bd89b,single_300ms_delay_2_84,3573,202,maintaskTrials_2_l_reversekey,8,4
336,5fb6ae2b172cc12b1c5b3050,Group_JF,0,321a94d0894495314659e26b1bf0d29f557550c296794f045574423977a2c8cb,1647,True,keypress,testresponse_s_J,1226,['Shorter'],choice-response,Shorter,5fbc55f9be36f3ba328bd89b,single_300ms_delay_2_52,4220,203,maintaskTrials_2_s_reversekey,5,2
337,5fb6ae2b172cc12b1c5b3050,Group_JF,0,321a94d0894495314659e26b1bf0d29f557550c296794f045574423977a2c8cb,1647,False,keypress,testresponse_s_J,429,['Shorter'],choice-response,Longer,5fbc55f9be36f3ba328bd89b,single_300ms_delay_2_82,3517,204,maintaskTrials_2_s_reversekey,8,2
338,5fb6ae2b172cc12b1c5b3050,Group_JF,0,321a94d0894495314659e26b1bf0d29f557550c296794f045574423977a2c8cb,1647,False,keypress,testresponse_l_F,1070,['Longer'],choice-response,Shorter,5fbc55f9be36f3ba328bd89b,single_300ms_delay_2_55,4121,205,maintaskTrials_2_l_reversekey,5,5
339,5fb6ae2b172cc12b1c5b3050,Group_JF,0,321a94d0894495314659e26b1bf0d29f557550c296794f045574423977a2c8cb,1647,False,keypress,testresponse_l_F,1174,['Longer'],choice-response,Shorter,5fbc55f9be36f3ba328bd89b,single_300ms_delay_2_54,4226,206,maintaskTrials_2_l_reversekey,5,4
340,5fb6ae2b172cc12b1c5b3050,Group_JF,0,321a94d0894495314659e26b1bf0d29f557550c296794f045574423977a2c8cb,1647,False,keypress,testresponse_s_J,577,['Shorter'],choice-response,Longer,5fbc55f9be36f3ba328bd89b,single_300ms_delay_2_53,3623,207,maintaskTrials_2_s_reversekey,5,3
341,5fb6ae2b172cc12b1c5b3050,Group_JF,0,321a94d0894495314659e26b1bf0d29f557550c296794f045574423977a2c8cb,1647,True,keypress,testresponse_s_J,375,['Shorter'],choice-response,Shorter,5fbc55f9be36f3ba328bd89b,single_300ms_delay_2_92,3570,208,maintaskTrials_2_s_reversekey,9,2
342,5fb6ae2b172cc12b1c5b3050,Group_JF,0,321a94d0894495314659e26b1bf0d29f557550c296794f045574423977a2c8cb,1647,False,keypress,testresponse_s_J,237,['Shorter'],choice-response,Longer,5fbc55f9be36f3ba328bd89b,single_300ms_delay_2_82,3325,209,maintaskTrials_2_s_reversekey,8,2
343,5fb6ae2b172cc12b1c5b3050,Group_JF,0,321a94d0894495314659e26b1bf0d29f557550c296794f045574423977a2c8cb,1647,True,keypress,testresponse_s_J,502,['Shorter'],choice-response,Shorter,5fbc55f9be36f3ba328bd89b,single_300ms_delay_2_53,4035,210,maintaskTrials_2_s_reversekey,5,3
344,5fb6ae2b172cc12b1c5b3050,Group_JF,0,321a94d0894495314659e26b1bf0d29f557550c296794f045574423977a2c8cb,1647,True,keypress,testresponse_s_J,430,['Shorter'],choice-response,Shorter,5fbc55f9be36f3ba328bd89b,single_300ms_delay_2_81,3519,211,maintaskTrials_2_s_reversekey,8,1
345,5fb6ae2b172cc12b1c5b3050,Group_JF,0,321a94d0894495314659e26b1bf0d29f557550c296794f045574423977a2c8cb,1647,True,keypress,testresponse_l_F,305,['Longer'],choice-response,Longer,5fbc55f9be36f3ba328bd89b,single_300ms_delay_2_84,3800,212,maintaskTrials_2_l_reversekey,8,4
346,5fb6ae2b172cc12b1c5b3050,Group_JF,0,321a94d0894495314659e26b1bf0d29f557550c296794f045574423977a2c8cb,1647,True,keypress,testresponse_s_J,1179,['Shorter'],choice-response,Shorter,5fbc55f9be36f3ba328bd89b,single_300ms_delay_2_51,4928,213,maintaskTrials_2_s_reversekey,5,1
347,5fb6ae2b172cc12b1c5b3050,Group_JF,0,321a94d0894495314659e26b1bf0d29f557550c296794f045574423977a2c8cb,1647,True,keypress,testresponse_l_F,325,['Longer'],choice-response,Longer,5fbc55f9be36f3ba328bd89b,single_300ms_delay_2_85,3474,214,maintaskTrials_2_l_reversekey,8,5
348,5fb6ae2b172cc12b1c5b3050,Group_JF,0,321a94d0894495314659e26b1bf0d29f557550c296794f045574423977a2c8cb,1647,True,keypress,testresponse_l_F,889,['Longer'],choice-response,Longer,5fbc55f9be36f3ba328bd89b,single_300ms_delay_2_56,3956,215,maintaskTrials_2_l_reversekey,5,6
349,5fb6ae2b172cc12b1c5b3050,Group_JF,0,321a94d0894495314659e26b1bf0d29f557550c296794f045574423977a2c8cb,1647,False,keypress,testresponse_l_F,311,['Longer'],choice-response,Shorter,5fbc55f9be36f3ba328bd89b,single_300ms_delay_2_55,3359,216,maintaskTrials_2_l_reversekey,5,5
350,5fb6ae2b172cc12b1c5b3050,Group_JF,0,321a94d0894495314659e26b1bf0d29f557550c296794f045574423977a2c8cb,1647,True,keypress,testresponse_s_J,549,['Shorter'],choice-response,Shorter,5fbc55f9be36f3ba328bd89b,single_300ms_delay_2_91,3754,217,maintaskTrials_2_s_reversekey,9,1
351,5fb6ae2b172cc12b1c5b3050,Group_JF,0,321a94d0894495314659e26b1bf0d29f557550c296794f045574423977a2c8cb,1647,True,keypress,testresponse_l_F,405,['Longer'],choice-response,Longer,5fbc55f9be36f3ba328bd89b,single_300ms_delay_2_95,3644,218,maintaskTrials_2_l_reversekey,9,5
352,5fb6ae2b172cc12b1c5b3050,Group_JF,0,321a94d0894495314659e26b1bf0d29f557550c296794f045574423977a2c8cb,1647,False,keypress,testresponse_l_F,396,['Longer'],choice-response,Shorter,5fbc55f9be36f3ba328bd89b,single_300ms_delay_2_94,3681,219,maintaskTrials_2_l_reversekey,9,4
353,5fb6ae2b172cc12b1c5b3050,Group_JF,0,321a94d0894495314659e26b1bf0d29f557550c296794f045574423977a2c8cb,1647,False,keypress,testresponse_s_J,349,['Shorter'],choice-response,Longer,5fbc55f9be36f3ba328bd89b,single_300ms_delay_2_83,3469,220,maintaskTrials_2_s_reversekey,8,3
354,5fb6ae2b172cc12b1c5b3050,Group_JF,0,321a94d0894495314659e26b1bf0d29f557550c296794f045574423977a2c8cb,1647,False,keypress,testresponse_l_F,538,['Longer'],choice-response,Shorter,5fbc55f9be36f3ba328bd89b,single_300ms_delay_2_54,3865,221,maintaskTrials_2_l_reversekey,5,4
355,5fb6ae2b172cc12b1c5b3050,Group_JF,0,321a94d0894495314659e26b1bf0d29f557550c296794f045574423977a2c8cb,1647,True,keypress,testresponse_s_J,536,['Shorter'],choice-response,Shorter,5fbc55f9be36f3ba328bd89b,single_300ms_delay_2_52,3564,222,maintaskTrials_2_s_reversekey,5,2
356,5fb6ae2b172cc12b1c5b3050,Group_JF,0,321a94d0894495314659e26b1bf0d29f557550c296794f045574423977a2c8cb,1647,True,keypress,testresponse_s_J,750,['Shorter'],choice-response,Shorter,5fbc55f9be36f3ba328bd89b,single_300ms_delay_2_93,4499,223,maintaskTrials_2_s_reversekey,9,3
357,5fb6ae2b172cc12b1c5b3050,Group_JF,0,321a94d0894495314659e26b1bf0d29f557550c296794f045574423977a2c8cb,1647,True,keypress,testresponse_l_F,364,['Longer'],choice-response,Longer,5fbc55f9be36f3ba328bd89b,single_300ms_delay_2_96,3564,224,maintaskTrials_2_l_reversekey,9,6
358,5fb6ae2b172cc12b1c5b3050,Group_JF,0,321a94d0894495314659e26b1bf0d29f557550c296794f045574423977a2c8cb,1647,True,keypress,testresponse_s_J,983,['Shorter'],choice-response,Shorter,5fbc55f9be36f3ba328bd89b,single_300ms_delay_2_92,4182,225,maintaskTrials_2_s_reversekey,9,2
359,5fb6ae2b172cc12b1c5b3050,Group_JF,0,321a94d0894495314659e26b1bf0d29f557550c296794f045574423977a2c8cb,1647,True,keypress,testresponse_l_F,706,['Longer'],choice-response,Longer,5fbc55f9be36f3ba328bd89b,single_300ms_delay_2_86,4435,226,maintaskTrials_2_l_reversekey,8,6
360,5fb6ae2b172cc12b1c5b3050,Group_JF,0,321a94d0894495314659e26b1bf0d29f557550c296794f045574423977a2c8cb,1647,True,keypress,testresponse_s_J,466,['Shorter'],choice-response,Shorter,5fbc55f9be36f3ba328bd89b,single_300ms_delay_2_93,3673,227,maintaskTrials_2_s_reversekey,9,3
361,5fb6ae2b172cc12b1c5b3050,Group_JF,0,321a94d0894495314659e26b1bf0d29f557550c296794f045574423977a2c8cb,1647,True,keypress,testresponse_s_J,513,['Shorter'],choice-response,Shorter,5fbc55f9be36f3ba328bd89b,single_300ms_delay_2_53,3562,228,maintaskTrials_2_s_reversekey,5,3
362,5fb6ae2b172cc12b1c5b3050,Group_JF,0,321a94d0894495314659e26b1bf0d29f557550c296794f045574423977a2c8cb,1647,False,keypress,testresponse_l_F,627,['Longer'],choice-response,Shorter,5fbc55f9be36f3ba328bd89b,single_300ms_delay_2_55,3930,229,maintaskTrials_2_l_reversekey,5,5
363,5fb6ae2b172cc12b1c5b3050,Group_JF,0,321a94d0894495314659e26b1bf0d29f557550c296794f045574423977a2c8cb,1647,True,keypress,testresponse_l_F,346,['Longer'],choice-response,Longer,5fbc55f9be36f3ba328bd89b,single_300ms_delay_2_54,3371,230,maintaskTrials_2_l_reversekey,5,4
364,5fb6ae2b172cc12b1c5b3050,Group_JF,0,321a94d0894495314659e26b1bf0d29f557550c296794f045574423977a2c8cb,1647,True,keypress,testresponse_s_J,433,['Shorter'],choice-response,Shorter,5fbc55f9be36f3ba328bd89b,single_300ms_delay_2_92,3617,231,maintaskTrials_2_s_reversekey,9,2
365,5fb6ae2b172cc12b1c5b3050,Group_JF,0,321a94d0894495314659e26b1bf0d29f557550c296794f045574423977a2c8cb,1647,False,keypress,testresponse_s_J,321,['Shorter'],choice-response,Longer,5fbc55f9be36f3ba328bd89b,single_300ms_delay_2_81,3413,232,maintaskTrials_2_s_reversekey,8,1
366,5fb6ae2b172cc12b1c5b3050,Group_JF,0,321a94d0894495314659e26b1bf0d29f557550c296794f045574423977a2c8cb,1647,False,keypress,testresponse_l_F,482,['Longer'],choice-response,Shorter,5fbc55f9be36f3ba328bd89b,single_300ms_delay_2_95,3747,233,maintaskTrials_2_l_reversekey,9,5
367,5fb6ae2b172cc12b1c5b3050,Group_JF,0,321a94d0894495314659e26b1bf0d29f557550c296794f045574423977a2c8cb,1647,True,keypress,testresponse_s_J,554,['Shorter'],choice-response,Shorter,5fbc55f9be36f3ba328bd89b,single_300ms_delay_2_52,3759,234,maintaskTrials_2_s_reversekey,5,2
368,5fb6ae2b172cc12b1c5b3050,Group_JF,0,321a94d0894495314659e26b1bf0d29f557550c296794f045574423977a2c8cb,1647,False,keypress,testresponse_s_J,184,['Shorter'],choice-response,Longer,5fbc55f9be36f3ba328bd89b,single_300ms_delay_2_51,3194,235,maintaskTrials_2_s_reversekey,5,1
369,5fb6ae2b172cc12b1c5b3050,Group_JF,0,321a94d0894495314659e26b1bf0d29f557550c296794f045574423977a2c8cb,1647,True,keypress,testresponse_l_F,287,['Longer'],choice-response,Longer,5fbc55f9be36f3ba328bd89b,single_300ms_delay_2_96,3510,236,maintaskTrials_2_l_reversekey,9,6
370,5fb6ae2b172cc12b1c5b3050,Group_JF,0,321a94d0894495314659e26b1bf0d29f557550c296794f045574423977a2c8cb,1647,False,keypress,testresponse_l_F,344,['Longer'],choice-response,Shorter,5fbc55f9be36f3ba328bd89b,single_300ms_delay_2_94,4367,237,maintaskTrials_2_l_reversekey,9,4
371,5fb6ae2b172cc12b1c5b3050,Group_JF,0,321a94d0894495314659e26b1bf0d29f557550c296794f045574423977a2c8cb,1647,False,keypress,testresponse_s_J,492,['Shorter'],choice-response,Longer,5fbc55f9be36f3ba328bd89b,single_300ms_delay_2_91,3690,238,maintaskTrials_2_s_reversekey,9,1
372,5fb6ae2b172cc12b1c5b3050,Group_JF,0,321a94d0894495314659e26b1bf0d29f557550c296794f045574423977a2c8cb,1647,False,keypress,testresponse_l_F,480,['Longer'],choice-response,Shorter,5fbc55f9be36f3ba328bd89b,single_300ms_delay_2_84,3610,239,maintaskTrials_2_l_reversekey,8,4
373,5fb6ae2b172cc12b1c5b3050,Group_JF,0,321a94d0894495314659e26b1bf0d29f557550c296794f045574423977a2c8cb,1647,True,keypress,testresponse_l_F,214,['Longer'],choice-response,Longer,5fbc55f9be36f3ba328bd89b,single_300ms_delay_2_85,3356,240,maintaskTrials_2_l_reversekey,8,5
374,5fb6ae2b172cc12b1c5b3050,Group_JF,0,321a94d0894495314659e26b1bf0d29f557550c296794f045574423977a2c8cb,1647,False,keypress,testresponse_s_J,312,['Shorter'],choice-response,Longer,5fbc55f9be36f3ba328bd89b,single_300ms_delay_2_83,3424,241,maintaskTrials_2_s_reversekey,8,3
