branch_failpass,expt_id,group_id,network_error_repeat,participant_id,participation_duration,response_correct,response_mode,response_name,response_rt,response_target,response_type,response_value,session_id,session_start_time,stimuli_presented,trial_duration,trial_num,trial_template
pass,6345b7f49677d36bd07c5a10,EXP8c_JF,0,2ab1f3c00a463a452d042a457c55214abd7f82feac1b545f6dcc94d6affdb2c1,2462.88123,FALSE,click,survey_noise,3527,[],choice-response,2,634873c263630e047ced3765,2022-10-13 16:23:30-04:00,logistics_noise,4848,1,logisticsQuestionnaire
pass,6345b7f49677d36bd07c5a10,EXP8c_JF,0,2ab1f3c00a463a452d042a457c55214abd7f82feac1b545f6dcc94d6affdb2c1,2462.88123,FALSE,click,survey_headphone1,4493,[],choice-response,Yes,634873c263630e047ced3765,2022-10-13 16:23:30-04:00,logistic_headphone1,6110,2,logisticsQuestionnaire
pass,6345b7f49677d36bd07c5a10,EXP8c_JF,0,2ab1f3c00a463a452d042a457c55214abd7f82feac1b545f6dcc94d6affdb2c1,2462.88123,FALSE,click,survey_headphone2,2900,[],choice-response,Wired Headphones,634873c263630e047ced3765,2022-10-13 16:23:30-04:00,logistic_headphone2,6081,3,logisticsQuestionnaire
pass,6345b7f49677d36bd07c5a10,EXP8c_JF,0,2ab1f3c00a463a452d042a457c55214abd7f82feac1b545f6dcc94d6affdb2c1,2462.88123,TRUE,keypress,EXP8c_exampleRsp_l_F,3499,['Lab'],choice-response,Lab,634873c263630e047ced3765,2022-10-13 16:23:30-04:00,long_tone_8,7447,4,EXP8c_Pretestexample_l_rv
pass,6345b7f49677d36bd07c5a10,EXP8c_JF,0,2ab1f3c00a463a452d042a457c55214abd7f82feac1b545f6dcc94d6affdb2c1,2462.88123,TRUE,keypress,EXP8c_exampleRsp_s_J,4523,['Lap'],choice-response,Lap,634873c263630e047ced3765,2022-10-13 16:23:30-04:00,short_tone_1,8227,5,EXP8c_Pretestexample_s_rv
pass,6345b7f49677d36bd07c5a10,EXP8c_JF,0,2ab1f3c00a463a452d042a457c55214abd7f82feac1b545f6dcc94d6affdb2c1,2462.88123,TRUE,keypress,EXP8c_exampleRsp_l_F,694,['Lab'],choice-response,Lab,634873c263630e047ced3765,2022-10-13 16:23:30-04:00,long_tone_8,4627,6,EXP8c_Pretestexample_l_rv
pass,6345b7f49677d36bd07c5a10,EXP8c_JF,0,2ab1f3c00a463a452d042a457c55214abd7f82feac1b545f6dcc94d6affdb2c1,2462.88123,TRUE,keypress,EXP8c_exampleRsp_s_J,618,['Lap'],choice-response,Lap,634873c263630e047ced3765,2022-10-13 16:23:30-04:00,short_tone_1,4444,7,EXP8c_Pretestexample_s_rv
pass,6345b7f49677d36bd07c5a10,EXP8c_JF,0,2ab1f3c00a463a452d042a457c55214abd7f82feac1b545f6dcc94d6affdb2c1,2462.88123,FALSE,keypress,EXP8c_testRsp_rv,1285,[],choice-response,Lap,634873c263630e047ced3765,2022-10-13 16:23:30-04:00,short_tone_1,2418,8,EXP8c_PretestTrials_s_rv
pass,6345b7f49677d36bd07c5a10,EXP8c_JF,0,2ab1f3c00a463a452d042a457c55214abd7f82feac1b545f6dcc94d6affdb2c1,2462.88123,FALSE,keypress,EXP8c_testRsp_rv,963,[],choice-response,Lab,634873c263630e047ced3765,2022-10-13 16:23:30-04:00,long_tone_8,2205,9,EXP8c_PretestTrials_l_rv
pass,6345b7f49677d36bd07c5a10,EXP8c_JF,0,2ab1f3c00a463a452d042a457c55214abd7f82feac1b545f6dcc94d6affdb2c1,2462.88123,FALSE,keypress,EXP8c_testRsp_rv,1312,[],choice-response,Lab,634873c263630e047ced3765,2022-10-13 16:23:30-04:00,long_tone_8,2543,10,EXP8c_PretestTrials_l_rv
pass,6345b7f49677d36bd07c5a10,EXP8c_JF,0,2ab1f3c00a463a452d042a457c55214abd7f82feac1b545f6dcc94d6affdb2c1,2462.88123,FALSE,keypress,EXP8c_testRsp_rv,415,[],choice-response,Lap,634873c263630e047ced3765,2022-10-13 16:23:30-04:00,short_tone_1,1503,11,EXP8c_PretestTrials_s_rv
pass,6345b7f49677d36bd07c5a10,EXP8c_JF,0,2ab1f3c00a463a452d042a457c55214abd7f82feac1b545f6dcc94d6affdb2c1,2462.88123,FALSE,keypress,EXP8c_testRsp_rv,1205,[],choice-response,Lap,634873c263630e047ced3765,2022-10-13 16:23:30-04:00,short_tone_1,2338,12,EXP8c_PretestTrials_s_rv
pass,6345b7f49677d36bd07c5a10,EXP8c_JF,0,2ab1f3c00a463a452d042a457c55214abd7f82feac1b545f6dcc94d6affdb2c1,2462.88123,FALSE,keypress,EXP8c_testRsp_rv,544,[],choice-response,Lab,634873c263630e047ced3765,2022-10-13 16:23:30-04:00,long_tone_8,1864,13,EXP8c_PretestTrials_l_rv
pass,6345b7f49677d36bd07c5a10,EXP8c_JF,0,2ab1f3c00a463a452d042a457c55214abd7f82feac1b545f6dcc94d6affdb2c1,2462.88123,FALSE,keypress,EXP8c_testRsp_rv,386,[],choice-response,Lab,634873c263630e047ced3765,2022-10-13 16:23:30-04:00,long_tone_8,1676,14,EXP8c_PretestTrials_l_rv
pass,6345b7f49677d36bd07c5a10,EXP8c_JF,0,2ab1f3c00a463a452d042a457c55214abd7f82feac1b545f6dcc94d6affdb2c1,2462.88123,FALSE,keypress,EXP8c_testRsp_rv,393,[],choice-response,Lap,634873c263630e047ced3765,2022-10-13 16:23:30-04:00,short_tone_1,1488,15,EXP8c_PretestTrials_s_rv
pass,6345b7f49677d36bd07c5a10,EXP8c_JF,0,2ab1f3c00a463a452d042a457c55214abd7f82feac1b545f6dcc94d6affdb2c1,2462.88123,FALSE,keypress,EXP8c_testRsp_rv,653,[],choice-response,Lap,634873c263630e047ced3765,2022-10-13 16:23:30-04:00,short_tone_1,1772,16,EXP8c_PretestTrials_s_rv
pass,6345b7f49677d36bd07c5a10,EXP8c_JF,0,2ab1f3c00a463a452d042a457c55214abd7f82feac1b545f6dcc94d6affdb2c1,2462.88123,FALSE,keypress,EXP8c_testRsp_rv,348,[],choice-response,Lab,634873c263630e047ced3765,2022-10-13 16:23:30-04:00,long_tone_8,1618,17,EXP8c_PretestTrials_l_rv
pass,6345b7f49677d36bd07c5a10,EXP8c_JF,0,2ab1f3c00a463a452d042a457c55214abd7f82feac1b545f6dcc94d6affdb2c1,2462.88123,FALSE,keypress,EXP8c_testRsp_rv,1243,[],choice-response,Lab,634873c263630e047ced3765,2022-10-13 16:23:30-04:00,long_tone_8,2564,18,EXP8c_PretestTrials_l_rv
pass,6345b7f49677d36bd07c5a10,EXP8c_JF,0,2ab1f3c00a463a452d042a457c55214abd7f82feac1b545f6dcc94d6affdb2c1,2462.88123,FALSE,keypress,EXP8c_testRsp_rv,312,[],choice-response,Lap,634873c263630e047ced3765,2022-10-13 16:23:30-04:00,short_tone_1,1407,19,EXP8c_PretestTrials_s_rv
pass,6345b7f49677d36bd07c5a10,EXP8c_JF,0,2ab1f3c00a463a452d042a457c55214abd7f82feac1b545f6dcc94d6affdb2c1,2462.88123,FALSE,keypress,EXP8c_testRsp_rv,773,[],choice-response,Lap,634873c263630e047ced3765,2022-10-13 16:23:30-04:00,short_tone_1,1876,20,EXP8c_PretestTrials_s_rv
pass,6345b7f49677d36bd07c5a10,EXP8c_JF,0,2ab1f3c00a463a452d042a457c55214abd7f82feac1b545f6dcc94d6affdb2c1,2462.88123,FALSE,keypress,EXP8c_testRsp_rv,519,[],choice-response,Lab,634873c263630e047ced3765,2022-10-13 16:23:30-04:00,long_tone_8,1833,21,EXP8c_PretestTrials_l_rv
pass,6345b7f49677d36bd07c5a10,EXP8c_JF,0,2ab1f3c00a463a452d042a457c55214abd7f82feac1b545f6dcc94d6affdb2c1,2462.88123,FALSE,keypress,EXP8c_testRsp_rv,522,[],choice-response,Lap,634873c263630e047ced3765,2022-10-13 16:23:30-04:00,short_tone_1,1607,22,EXP8c_PretestTrials_s_rv
pass,6345b7f49677d36bd07c5a10,EXP8c_JF,0,2ab1f3c00a463a452d042a457c55214abd7f82feac1b545f6dcc94d6affdb2c1,2462.88123,FALSE,keypress,EXP8c_testRsp_rv,1162,[],choice-response,Lab,634873c263630e047ced3765,2022-10-13 16:23:30-04:00,long_tone_8,2449,23,EXP8c_PretestTrials_l_rv
pass,6345b7f49677d36bd07c5a10,EXP8c_JF,0,2ab1f3c00a463a452d042a457c55214abd7f82feac1b545f6dcc94d6affdb2c1,2462.88123,FALSE,keypress,EXP8c_testRsp_rv,1641,[],choice-response,Lap,634873c263630e047ced3765,2022-10-13 16:23:30-04:00,short_tone_1,2721,24,EXP8c_PretestTrials_s_rv
pass,6345b7f49677d36bd07c5a10,EXP8c_JF,0,2ab1f3c00a463a452d042a457c55214abd7f82feac1b545f6dcc94d6affdb2c1,2462.88123,FALSE,keypress,EXP8c_testRsp_rv,394,[],choice-response,Lab,634873c263630e047ced3765,2022-10-13 16:23:30-04:00,long_tone_8,1641,25,EXP8c_PretestTrials_l_rv
pass,6345b7f49677d36bd07c5a10,EXP8c_JF,0,2ab1f3c00a463a452d042a457c55214abd7f82feac1b545f6dcc94d6affdb2c1,2462.88123,FALSE,keypress,EXP8c_testRsp_rv,710,[],choice-response,Lab,634873c263630e047ced3765,2022-10-13 16:23:30-04:00,long_tone_8,1967,26,EXP8c_PretestTrials_l_rv
pass,6345b7f49677d36bd07c5a10,EXP8c_JF,0,2ab1f3c00a463a452d042a457c55214abd7f82feac1b545f6dcc94d6affdb2c1,2462.88123,FALSE,keypress,EXP8c_testRsp_rv,357,[],choice-response,Lap,634873c263630e047ced3765,2022-10-13 16:23:30-04:00,short_tone_1,1451,27,EXP8c_PretestTrials_s_rv
pass,6345b7f49677d36bd07c5a10,EXP8c_JF,0,2ab1f3c00a463a452d042a457c55214abd7f82feac1b545f6dcc94d6affdb2c1,2462.88123,FALSE,keypress,EXP8c_testRsp_rv,662,[],choice-response,Lap,634873c263630e047ced3765,2022-10-13 16:23:30-04:00,short_tone_1,1754,28,EXP8c_PretestTrials_s_rv
pass,6345b7f49677d36bd07c5a10,EXP8c_JF,0,2ab1f3c00a463a452d042a457c55214abd7f82feac1b545f6dcc94d6affdb2c1,2462.88123,FALSE,keypress,EXP8c_testRsp_rv,557,[],choice-response,Lab,634873c263630e047ced3765,2022-10-13 16:23:30-04:00,long_tone_8,1792,29,EXP8c_PretestTrials_l_rv
pass,6345b7f49677d36bd07c5a10,EXP8c_JF,0,2ab1f3c00a463a452d042a457c55214abd7f82feac1b545f6dcc94d6affdb2c1,2462.88123,FALSE,keypress,EXP8c_testRsp_rv,416,[],choice-response,Lab,634873c263630e047ced3765,2022-10-13 16:23:30-04:00,long_tone_8,1759,30,EXP8c_PretestTrials_l_rv
pass,6345b7f49677d36bd07c5a10,EXP8c_JF,0,2ab1f3c00a463a452d042a457c55214abd7f82feac1b545f6dcc94d6affdb2c1,2462.88123,FALSE,keypress,EXP8c_testRsp_rv,996,[],choice-response,Lap,634873c263630e047ced3765,2022-10-13 16:23:30-04:00,short_tone_1,2082,31,EXP8c_PretestTrials_s_rv
pass,6345b7f49677d36bd07c5a10,EXP8c_JF,0,2ab1f3c00a463a452d042a457c55214abd7f82feac1b545f6dcc94d6affdb2c1,2462.88123,FALSE,keypress,EXP8c_testRsp_rv,860,[],choice-response,Lap,634873c263630e047ced3765,2022-10-13 16:23:30-04:00,short_tone_1,1939,32,EXP8c_PretestTrials_s_rv
pass,6345b7f49677d36bd07c5a10,EXP8c_JF,0,2ab1f3c00a463a452d042a457c55214abd7f82feac1b545f6dcc94d6affdb2c1,2462.88123,FALSE,keypress,EXP8c_testRsp_rv,882,[],choice-response,Lab,634873c263630e047ced3765,2022-10-13 16:23:30-04:00,long_tone_8,2099,33,EXP8c_PretestTrials_l_rv
pass,6345b7f49677d36bd07c5a10,EXP8c_JF,0,2ab1f3c00a463a452d042a457c55214abd7f82feac1b545f6dcc94d6affdb2c1,2462.88123,FALSE,keypress,EXP8c_testRsp_rv,1095,[],choice-response,Lab,634873c263630e047ced3765,2022-10-13 16:23:30-04:00,long_tone_8,2422,34,EXP8c_PretestTrials_l_rv
pass,6345b7f49677d36bd07c5a10,EXP8c_JF,0,2ab1f3c00a463a452d042a457c55214abd7f82feac1b545f6dcc94d6affdb2c1,2462.88123,FALSE,keypress,EXP8c_testRsp_rv,197,[],choice-response,Lap,634873c263630e047ced3765,2022-10-13 16:23:30-04:00,short_tone_1,1358,35,EXP8c_PretestTrials_s_rv
pass,6345b7f49677d36bd07c5a10,EXP8c_JF,0,2ab1f3c00a463a452d042a457c55214abd7f82feac1b545f6dcc94d6affdb2c1,2462.88123,FALSE,keypress,EXP8c_testRsp_rv,1021,[],choice-response,Lab,634873c263630e047ced3765,2022-10-13 16:23:30-04:00,long_tone_8,2277,36,EXP8c_PretestTrials_l_rv
pass,6345b7f49677d36bd07c5a10,EXP8c_JF,0,2ab1f3c00a463a452d042a457c55214abd7f82feac1b545f6dcc94d6affdb2c1,2462.88123,FALSE,keypress,EXP8c_testRsp_rv,375,[],choice-response,Lap,634873c263630e047ced3765,2022-10-13 16:23:30-04:00,short_tone_1,1497,37,EXP8c_PretestTrials_s_rv
pass,6345b7f49677d36bd07c5a10,EXP8c_JF,0,2ab1f3c00a463a452d042a457c55214abd7f82feac1b545f6dcc94d6affdb2c1,2462.88123,FALSE,keypress,EXP8c_testRsp_rv,337,[],choice-response,Lap,634873c263630e047ced3765,2022-10-13 16:23:30-04:00,short_tone_1,1441,38,EXP8c_PretestTrials_s_rv
pass,6345b7f49677d36bd07c5a10,EXP8c_JF,0,2ab1f3c00a463a452d042a457c55214abd7f82feac1b545f6dcc94d6affdb2c1,2462.88123,FALSE,keypress,EXP8c_testRsp_rv,373,[],choice-response,Lab,634873c263630e047ced3765,2022-10-13 16:23:30-04:00,long_tone_8,1623,39,EXP8c_PretestTrials_l_rv
pass,6345b7f49677d36bd07c5a10,EXP8c_JF,0,2ab1f3c00a463a452d042a457c55214abd7f82feac1b545f6dcc94d6affdb2c1,2462.88123,FALSE,keypress,EXP8c_testRsp_rv,715,[],choice-response,Lap,634873c263630e047ced3765,2022-10-13 16:23:30-04:00,short_tone_1,1795,40,EXP8c_PretestTrials_s_rv
pass,6345b7f49677d36bd07c5a10,EXP8c_JF,0,2ab1f3c00a463a452d042a457c55214abd7f82feac1b545f6dcc94d6affdb2c1,2462.88123,FALSE,keypress,EXP8c_testRsp_rv,318,[],choice-response,Lab,634873c263630e047ced3765,2022-10-13 16:23:30-04:00,long_tone_8,1547,41,EXP8c_PretestTrials_l_rv
pass,6345b7f49677d36bd07c5a10,EXP8c_JF,0,2ab1f3c00a463a452d042a457c55214abd7f82feac1b545f6dcc94d6affdb2c1,2462.88123,FALSE,keypress,EXP8c_testRsp_rv,508,[],choice-response,Lap,634873c263630e047ced3765,2022-10-13 16:23:30-04:00,short_tone_1,1673,42,EXP8c_PretestTrials_s_rv
pass,6345b7f49677d36bd07c5a10,EXP8c_JF,0,2ab1f3c00a463a452d042a457c55214abd7f82feac1b545f6dcc94d6affdb2c1,2462.88123,FALSE,keypress,EXP8c_testRsp_rv,380,[],choice-response,Lab,634873c263630e047ced3765,2022-10-13 16:23:30-04:00,long_tone_8,1606,43,EXP8c_PretestTrials_l_rv
pass,6345b7f49677d36bd07c5a10,EXP8c_JF,0,2ab1f3c00a463a452d042a457c55214abd7f82feac1b545f6dcc94d6affdb2c1,2462.88123,FALSE,keypress,EXP8c_testRsp_rv,272,[],choice-response,Lap,634873c263630e047ced3765,2022-10-13 16:23:30-04:00,short_tone_1,1349,44,EXP8c_PretestTrials_s_rv
pass,6345b7f49677d36bd07c5a10,EXP8c_JF,0,2ab1f3c00a463a452d042a457c55214abd7f82feac1b545f6dcc94d6affdb2c1,2462.88123,FALSE,keypress,EXP8c_testRsp_rv,377,[],choice-response,Lab,634873c263630e047ced3765,2022-10-13 16:23:30-04:00,long_tone_8,1623,45,EXP8c_PretestTrials_l_rv
pass,6345b7f49677d36bd07c5a10,EXP8c_JF,0,2ab1f3c00a463a452d042a457c55214abd7f82feac1b545f6dcc94d6affdb2c1,2462.88123,FALSE,keypress,EXP8c_testRsp_rv,1946,[],choice-response,Lab,634873c263630e047ced3765,2022-10-13 16:23:30-04:00,long_tone_8,3285,46,EXP8c_PretestTrials_l_rv
pass,6345b7f49677d36bd07c5a10,EXP8c_JF,0,2ab1f3c00a463a452d042a457c55214abd7f82feac1b545f6dcc94d6affdb2c1,2462.88123,FALSE,keypress,EXP8c_testRsp_rv,421,[],choice-response,Lap,634873c263630e047ced3765,2022-10-13 16:23:30-04:00,short_tone_1,1509,47,EXP8c_PretestTrials_s_rv
pass,6345b7f49677d36bd07c5a10,EXP8c_JF,0,2ab1f3c00a463a452d042a457c55214abd7f82feac1b545f6dcc94d6affdb2c1,2462.88123,FALSE,keypress,EXP8c_testRsp_rv,1941,[],choice-response,Lab,634873c263630e047ced3765,2022-10-13 16:23:30-04:00,long_tone_8,3179,48,EXP8c_PretestTrials_l_rv
pass,6345b7f49677d36bd07c5a10,EXP8c_JF,0,2ab1f3c00a463a452d042a457c55214abd7f82feac1b545f6dcc94d6affdb2c1,2462.88123,FALSE,keypress,EXP8c_testRsp_rv,377,[],choice-response,Lap,634873c263630e047ced3765,2022-10-13 16:23:30-04:00,short_tone_1,1439,49,EXP8c_PretestTrials_s_rv
pass,6345b7f49677d36bd07c5a10,EXP8c_JF,0,2ab1f3c00a463a452d042a457c55214abd7f82feac1b545f6dcc94d6affdb2c1,2462.88123,FALSE,keypress,EXP8c_testRsp_rv,791,[],choice-response,Lab,634873c263630e047ced3765,2022-10-13 16:23:30-04:00,long_tone_8,2067,50,EXP8c_PretestTrials_l_rv
pass,6345b7f49677d36bd07c5a10,EXP8c_JF,0,2ab1f3c00a463a452d042a457c55214abd7f82feac1b545f6dcc94d6affdb2c1,2462.88123,FALSE,keypress,EXP8c_testRsp_rv,373,[],choice-response,Lap,634873c263630e047ced3765,2022-10-13 16:23:30-04:00,short_tone_1,1458,51,EXP8c_PretestTrials_s_rv
pass,6345b7f49677d36bd07c5a10,EXP8c_JF,0,2ab1f3c00a463a452d042a457c55214abd7f82feac1b545f6dcc94d6affdb2c1,2462.88123,FALSE,keypress,EXP8c_testRsp_rv,489,[],choice-response,Lap,634873c263630e047ced3765,2022-10-13 16:23:30-04:00,short_tone_1,1579,52,EXP8c_PretestTrials_s_rv
pass,6345b7f49677d36bd07c5a10,EXP8c_JF,0,2ab1f3c00a463a452d042a457c55214abd7f82feac1b545f6dcc94d6affdb2c1,2462.88123,FALSE,keypress,EXP8c_testRsp_rv,396,[],choice-response,Lab,634873c263630e047ced3765,2022-10-13 16:23:30-04:00,long_tone_8,1658,53,EXP8c_PretestTrials_l_rv
pass,6345b7f49677d36bd07c5a10,EXP8c_JF,0,2ab1f3c00a463a452d042a457c55214abd7f82feac1b545f6dcc94d6affdb2c1,2462.88123,FALSE,keypress,EXP8c_testRsp_rv,3237,[],choice-response,Lab,634873c263630e047ced3765,2022-10-13 16:23:30-04:00,long_tone_8,4473,54,EXP8c_PretestTrials_l_rv
pass,6345b7f49677d36bd07c5a10,EXP8c_JF,0,2ab1f3c00a463a452d042a457c55214abd7f82feac1b545f6dcc94d6affdb2c1,2462.88123,FALSE,keypress,EXP8c_testRsp_rv,426,[],choice-response,Lap,634873c263630e047ced3765,2022-10-13 16:23:30-04:00,short_tone_1,1490,55,EXP8c_PretestTrials_s_rv
pass,6345b7f49677d36bd07c5a10,EXP8c_JF,0,2ab1f3c00a463a452d042a457c55214abd7f82feac1b545f6dcc94d6affdb2c1,2462.88123,FALSE,keypress,EXP8c_testRsp_rv,378,[],choice-response,Lap,634873c263630e047ced3765,2022-10-13 16:23:30-04:00,short_tone_1,1450,56,EXP8c_PretestTrials_s_rv
pass,6345b7f49677d36bd07c5a10,EXP8c_JF,0,2ab1f3c00a463a452d042a457c55214abd7f82feac1b545f6dcc94d6affdb2c1,2462.88123,FALSE,keypress,EXP8c_testRsp_rv,3185,[],choice-response,Lab,634873c263630e047ced3765,2022-10-13 16:23:30-04:00,long_tone_8,4493,57,EXP8c_PretestTrials_l_rv
pass,6345b7f49677d36bd07c5a10,EXP8c_JF,0,2ab1f3c00a463a452d042a457c55214abd7f82feac1b545f6dcc94d6affdb2c1,2462.88123,FALSE,keypress,EXP8c_testRsp_rv,415,[],choice-response,Lab,634873c263630e047ced3765,2022-10-13 16:23:30-04:00,long_tone_8,1624,58,EXP8c_PretestTrials_l_rv
pass,6345b7f49677d36bd07c5a10,EXP8c_JF,0,2ab1f3c00a463a452d042a457c55214abd7f82feac1b545f6dcc94d6affdb2c1,2462.88123,FALSE,keypress,EXP8c_testRsp_rv,712,[],choice-response,Lap,634873c263630e047ced3765,2022-10-13 16:23:30-04:00,short_tone_1,1792,59,EXP8c_PretestTrials_s_rv
pass,6345b7f49677d36bd07c5a10,EXP8c_JF,0,2ab1f3c00a463a452d042a457c55214abd7f82feac1b545f6dcc94d6affdb2c1,2462.88123,FALSE,keypress,EXP8c_testRsp_rv,669,[],choice-response,Lap,634873c263630e047ced3765,2022-10-13 16:23:30-04:00,short_tone_1,1790,60,EXP8c_PretestTrials_s_rv
pass,6345b7f49677d36bd07c5a10,EXP8c_JF,0,2ab1f3c00a463a452d042a457c55214abd7f82feac1b545f6dcc94d6affdb2c1,2462.88123,FALSE,keypress,EXP8c_testRsp_rv,426,[],choice-response,Lab,634873c263630e047ced3765,2022-10-13 16:23:30-04:00,long_tone_8,1656,61,EXP8c_PretestTrials_l_rv
pass,6345b7f49677d36bd07c5a10,EXP8c_JF,0,2ab1f3c00a463a452d042a457c55214abd7f82feac1b545f6dcc94d6affdb2c1,2462.88123,FALSE,keypress,EXP8c_testRsp_rv,1007,[],choice-response,Lap,634873c263630e047ced3765,2022-10-13 16:23:30-04:00,short_tone_1,2143,62,EXP8c_PretestTrials_s_rv
pass,6345b7f49677d36bd07c5a10,EXP8c_JF,0,2ab1f3c00a463a452d042a457c55214abd7f82feac1b545f6dcc94d6affdb2c1,2462.88123,FALSE,keypress,EXP8c_testRsp_rv,2146,[],choice-response,Lab,634873c263630e047ced3765,2022-10-13 16:23:30-04:00,long_tone_8,3385,63,EXP8c_PretestTrials_l_rv
pass,6345b7f49677d36bd07c5a10,EXP8c_JF,0,2ab1f3c00a463a452d042a457c55214abd7f82feac1b545f6dcc94d6affdb2c1,2462.88123,FALSE,keypress,EXP8c_testRsp_rv,1140,[],choice-response,Lab,634873c263630e047ced3765,2022-10-13 16:23:30-04:00,long_tone_8,2380,64,EXP8c_PretestTrials_l_rv
pass,6345b7f49677d36bd07c5a10,EXP8c_JF,0,2ab1f3c00a463a452d042a457c55214abd7f82feac1b545f6dcc94d6affdb2c1,2462.88123,FALSE,keypress,EXP8c_testRsp_rv,429,[],choice-response,Lap,634873c263630e047ced3765,2022-10-13 16:23:30-04:00,short_tone_1,1499,65,EXP8c_PretestTrials_s_rv
pass,6345b7f49677d36bd07c5a10,EXP8c_JF,0,2ab1f3c00a463a452d042a457c55214abd7f82feac1b545f6dcc94d6affdb2c1,2462.88123,FALSE,keypress,EXP8c_testRsp_rv,637,[],choice-response,Lab,634873c263630e047ced3765,2022-10-13 16:23:30-04:00,long_tone_8,1873,66,EXP8c_PretestTrials_l_rv
pass,6345b7f49677d36bd07c5a10,EXP8c_JF,0,2ab1f3c00a463a452d042a457c55214abd7f82feac1b545f6dcc94d6affdb2c1,2462.88123,FALSE,keypress,EXP8c_testRsp_rv,388,[],choice-response,Lap,634873c263630e047ced3765,2022-10-13 16:23:30-04:00,short_tone_1,1479,67,EXP8c_PretestTrials_s_rv
pass,6345b7f49677d36bd07c5a10,EXP8c_JF,0,2ab1f3c00a463a452d042a457c55214abd7f82feac1b545f6dcc94d6affdb2c1,2462.88123,TRUE,keypress,EXP8c_exampleRsp_l_F,1839,['Lab'],choice-response,Lab,634873c263630e047ced3765,2022-10-13 16:23:30-04:00,single_300ms_ontime_delay_2_tone_Lab_8,8036,68,EXP8c_example_l_rv
pass,6345b7f49677d36bd07c5a10,EXP8c_JF,0,2ab1f3c00a463a452d042a457c55214abd7f82feac1b545f6dcc94d6affdb2c1,2462.88123,TRUE,keypress,EXP8c_exampleRsp_s_J,1129,['Lap'],choice-response,Lap,634873c263630e047ced3765,2022-10-13 16:23:30-04:00,single_300ms_ontime_delay_2_tone_Lab_1,7194,69,EXP8c_example_s_rv
pass,6345b7f49677d36bd07c5a10,EXP8c_JF,0,2ab1f3c00a463a452d042a457c55214abd7f82feac1b545f6dcc94d6affdb2c1,2462.88123,TRUE,keypress,EXP8c_exampleRsp_l_F,1099,['Lab'],choice-response,Lab,634873c263630e047ced3765,2022-10-13 16:23:30-04:00,single_300ms_ontime_delay_2_tone_Lab_8,7330,70,EXP8c_example_l_rv
pass,6345b7f49677d36bd07c5a10,EXP8c_JF,0,2ab1f3c00a463a452d042a457c55214abd7f82feac1b545f6dcc94d6affdb2c1,2462.88123,TRUE,keypress,EXP8c_exampleRsp_s_J,1252,['Lap'],choice-response,Lap,634873c263630e047ced3765,2022-10-13 16:23:30-04:00,single_300ms_ontime_delay_2_tone_Lab_1,7310,71,EXP8c_example_s_rv
pass,6345b7f49677d36bd07c5a10,EXP8c_JF,0,2ab1f3c00a463a452d042a457c55214abd7f82feac1b545f6dcc94d6affdb2c1,2462.88123,TRUE,keypress,EXP8c_practiceRsp_l_F,899,['Lab'],choice-response,Lab,634873c263630e047ced3765,2022-10-13 16:23:30-04:00,single_300ms_ontime_delay_2_tone_Lab_8,7136,72,EXP8c_practiceTrials_l_rv
pass,6345b7f49677d36bd07c5a10,EXP8c_JF,0,2ab1f3c00a463a452d042a457c55214abd7f82feac1b545f6dcc94d6affdb2c1,2462.88123,TRUE,keypress,EXP8c_practiceRsp_s_J,755,['Lap'],choice-response,Lap,634873c263630e047ced3765,2022-10-13 16:23:30-04:00,single_300ms_ontime_delay_2_tone_Lab_1,6811,73,EXP8c_practiceTrials_s_rv
pass,6345b7f49677d36bd07c5a10,EXP8c_JF,0,2ab1f3c00a463a452d042a457c55214abd7f82feac1b545f6dcc94d6affdb2c1,2462.88123,TRUE,keypress,EXP8c_practiceRsp_l_F,1298,['Lab'],choice-response,Lab,634873c263630e047ced3765,2022-10-13 16:23:30-04:00,single_300ms_ontime_delay_2_tone_Lab_8,7495,74,EXP8c_practiceTrials_l_rv
pass,6345b7f49677d36bd07c5a10,EXP8c_JF,0,2ab1f3c00a463a452d042a457c55214abd7f82feac1b545f6dcc94d6affdb2c1,2462.88123,TRUE,keypress,EXP8c_practiceRsp_s_J,634,['Lap'],choice-response,Lap,634873c263630e047ced3765,2022-10-13 16:23:30-04:00,single_300ms_ontime_delay_2_tone_Lab_1,6744,75,EXP8c_practiceTrials_s_rv
pass,6345b7f49677d36bd07c5a10,EXP8c_JF,0,2ab1f3c00a463a452d042a457c55214abd7f82feac1b545f6dcc94d6affdb2c1,2462.88123,TRUE,keypress,EXP8c_practiceRsp_l_F,872,['Lab'],choice-response,Lab,634873c263630e047ced3765,2022-10-13 16:23:30-04:00,single_300ms_ontime_delay_2_tone_Lab_8,7029,76,EXP8c_practiceTrials_l_rv
pass,6345b7f49677d36bd07c5a10,EXP8c_JF,0,2ab1f3c00a463a452d042a457c55214abd7f82feac1b545f6dcc94d6affdb2c1,2462.88123,TRUE,keypress,EXP8c_practiceRsp_s_J,604,['Lap'],choice-response,Lap,634873c263630e047ced3765,2022-10-13 16:23:30-04:00,single_300ms_ontime_delay_2_tone_Lab_1,6613,77,EXP8c_practiceTrials_s_rv
pass,6345b7f49677d36bd07c5a10,EXP8c_JF,0,2ab1f3c00a463a452d042a457c55214abd7f82feac1b545f6dcc94d6affdb2c1,2462.88123,TRUE,keypress,EXP8c_practiceRsp_l_F,541,['Lab'],choice-response,Lab,634873c263630e047ced3765,2022-10-13 16:23:30-04:00,single_300ms_ontime_delay_2_tone_Lab_8,6729,78,EXP8c_practiceTrials_l_rv
pass,6345b7f49677d36bd07c5a10,EXP8c_JF,0,2ab1f3c00a463a452d042a457c55214abd7f82feac1b545f6dcc94d6affdb2c1,2462.88123,TRUE,keypress,EXP8c_practiceRsp_s_J,458,['Lap'],choice-response,Lap,634873c263630e047ced3765,2022-10-13 16:23:30-04:00,single_300ms_ontime_delay_2_tone_Lab_1,6592,79,EXP8c_practiceTrials_s_rv
pass,6345b7f49677d36bd07c5a10,EXP8c_JF,0,2ab1f3c00a463a452d042a457c55214abd7f82feac1b545f6dcc94d6affdb2c1,2462.88123,TRUE,keypress,EXP8c_practiceRsp_s_J,1061,['Lap'],choice-response,Lap,634873c263630e047ced3765,2022-10-13 16:23:30-04:00,single_300ms_ontime_delay_2_tone_Lab_1,7144,80,EXP8c_practiceTrials_s_rv
pass,6345b7f49677d36bd07c5a10,EXP8c_JF,0,2ab1f3c00a463a452d042a457c55214abd7f82feac1b545f6dcc94d6affdb2c1,2462.88123,TRUE,keypress,EXP8c_practiceRsp_l_F,2480,['Lab'],choice-response,Lab,634873c263630e047ced3765,2022-10-13 16:23:30-04:00,single_300ms_ontime_delay_2_tone_Lab_8,8662,81,EXP8c_practiceTrials_l_rv
pass,6345b7f49677d36bd07c5a10,EXP8c_JF,0,2ab1f3c00a463a452d042a457c55214abd7f82feac1b545f6dcc94d6affdb2c1,2462.88123,FALSE,keypress,EXP8c_practiceRsp_s_J,7709,['Lap'],choice-response,Lab,634873c263630e047ced3765,2022-10-13 16:23:30-04:00,single_300ms_ontime_delay_2_tone_Lab_1,13748,82,EXP8c_practiceTrials_s_rv
pass,6345b7f49677d36bd07c5a10,EXP8c_JF,0,2ab1f3c00a463a452d042a457c55214abd7f82feac1b545f6dcc94d6affdb2c1,2462.88123,TRUE,keypress,EXP8c_practiceRsp_l_F,1652,['Lab'],choice-response,Lab,634873c263630e047ced3765,2022-10-13 16:23:30-04:00,single_300ms_ontime_delay_2_tone_Lab_8,7928,83,EXP8c_practiceTrials_l_rv
pass,6345b7f49677d36bd07c5a10,EXP8c_JF,0,2ab1f3c00a463a452d042a457c55214abd7f82feac1b545f6dcc94d6affdb2c1,2462.88123,TRUE,keypress,EXP8c_practiceRsp_s_J,2472,['Lap'],choice-response,Lap,634873c263630e047ced3765,2022-10-13 16:23:30-04:00,single_300ms_ontime_delay_2_tone_Lab_1,8511,84,EXP8c_practiceTrials_s_rv
pass,6345b7f49677d36bd07c5a10,EXP8c_JF,0,2ab1f3c00a463a452d042a457c55214abd7f82feac1b545f6dcc94d6affdb2c1,2462.88123,TRUE,keypress,EXP8c_practiceRsp_l_F,488,['Lab'],choice-response,Lab,634873c263630e047ced3765,2022-10-13 16:23:30-04:00,single_300ms_ontime_delay_2_tone_Lab_8,6613,85,EXP8c_practiceTrials_l_rv
pass,6345b7f49677d36bd07c5a10,EXP8c_JF,0,2ab1f3c00a463a452d042a457c55214abd7f82feac1b545f6dcc94d6affdb2c1,2462.88123,TRUE,keypress,EXP8c_practiceRsp_l_F,431,['Lab'],choice-response,Lab,634873c263630e047ced3765,2022-10-13 16:23:30-04:00,single_300ms_ontime_delay_2_tone_Lab_8,6578,86,EXP8c_practiceTrials_l_rv
pass,6345b7f49677d36bd07c5a10,EXP8c_JF,0,2ab1f3c00a463a452d042a457c55214abd7f82feac1b545f6dcc94d6affdb2c1,2462.88123,TRUE,keypress,EXP8c_practiceRsp_s_J,543,['Lap'],choice-response,Lap,634873c263630e047ced3765,2022-10-13 16:23:30-04:00,single_300ms_ontime_delay_2_tone_Lab_1,6711,87,EXP8c_practiceTrials_s_rv
pass,6345b7f49677d36bd07c5a10,EXP8c_JF,0,2ab1f3c00a463a452d042a457c55214abd7f82feac1b545f6dcc94d6affdb2c1,2462.88123,TRUE,keypress,EXP8c_practiceRsp_s_J,1087,['Lap'],choice-response,Lap,634873c263630e047ced3765,2022-10-13 16:23:30-04:00,single_300ms_ontime_delay_2_tone_Lab_1,7079,88,EXP8c_practiceTrials_s_rv
pass,6345b7f49677d36bd07c5a10,EXP8c_JF,0,2ab1f3c00a463a452d042a457c55214abd7f82feac1b545f6dcc94d6affdb2c1,2462.88123,TRUE,keypress,EXP8c_practiceRsp_l_F,746,['Lab'],choice-response,Lab,634873c263630e047ced3765,2022-10-13 16:23:30-04:00,single_300ms_ontime_delay_2_tone_Lab_8,6896,89,EXP8c_practiceTrials_l_rv
pass,6345b7f49677d36bd07c5a10,EXP8c_JF,0,2ab1f3c00a463a452d042a457c55214abd7f82feac1b545f6dcc94d6affdb2c1,2462.88123,TRUE,keypress,EXP8c_practiceRsp_s_J,560,['Lap'],choice-response,Lap,634873c263630e047ced3765,2022-10-13 16:23:30-04:00,single_300ms_ontime_delay_2_tone_Lab_1,6629,90,EXP8c_practiceTrials_s_rv
pass,6345b7f49677d36bd07c5a10,EXP8c_JF,0,2ab1f3c00a463a452d042a457c55214abd7f82feac1b545f6dcc94d6affdb2c1,2462.88123,TRUE,keypress,EXP8c_practiceRsp_l_F,374,['Lab'],choice-response,Lab,634873c263630e047ced3765,2022-10-13 16:23:30-04:00,single_300ms_ontime_delay_2_tone_Lab_8,6629,91,EXP8c_practiceTrials_l_rv
pass,6345b7f49677d36bd07c5a10,EXP8c_JF,0,2ab1f3c00a463a452d042a457c55214abd7f82feac1b545f6dcc94d6affdb2c1,2462.88123,TRUE,keypress,EXP8c_practiceRsp_s_J,586,['Lap'],choice-response,Lap,634873c263630e047ced3765,2022-10-13 16:23:30-04:00,single_300ms_ontime_delay_2_tone_Lab_1,6697,92,EXP8c_practiceTrials_s_rv
pass,6345b7f49677d36bd07c5a10,EXP8c_JF,0,2ab1f3c00a463a452d042a457c55214abd7f82feac1b545f6dcc94d6affdb2c1,2462.88123,TRUE,keypress,EXP8c_practiceRsp_l_F,356,['Lab'],choice-response,Lab,634873c263630e047ced3765,2022-10-13 16:23:30-04:00,single_300ms_ontime_delay_2_tone_Lab_8,6563,93,EXP8c_practiceTrials_l_rv
pass,6345b7f49677d36bd07c5a10,EXP8c_JF,0,2ab1f3c00a463a452d042a457c55214abd7f82feac1b545f6dcc94d6affdb2c1,2462.88123,TRUE,keypress,EXP8c_practiceRsp_s_J,683,['Lap'],choice-response,Lap,634873c263630e047ced3765,2022-10-13 16:23:30-04:00,single_300ms_ontime_delay_2_tone_Lab_1,6744,94,EXP8c_practiceTrials_s_rv
pass,6345b7f49677d36bd07c5a10,EXP8c_JF,0,2ab1f3c00a463a452d042a457c55214abd7f82feac1b545f6dcc94d6affdb2c1,2462.88123,TRUE,keypress,EXP8c_practiceRsp_l_F,391,['Lab'],choice-response,Lab,634873c263630e047ced3765,2022-10-13 16:23:30-04:00,single_300ms_ontime_delay_2_tone_Lab_8,6662,95,EXP8c_practiceTrials_l_rv
pass,6345b7f49677d36bd07c5a10,EXP8c_JF,0,2ab1f3c00a463a452d042a457c55214abd7f82feac1b545f6dcc94d6affdb2c1,2462.88123,FALSE,keypress,EXP8c_testRsp_rv,1510,[],choice-response,Lap,634873c263630e047ced3765,2022-10-13 16:23:30-04:00,single_300ms_early_delay_2_tone_Lab_4,4915,96,EXP8c_maintaskTrials_2_s_rv
pass,6345b7f49677d36bd07c5a10,EXP8c_JF,0,2ab1f3c00a463a452d042a457c55214abd7f82feac1b545f6dcc94d6affdb2c1,2462.88123,FALSE,keypress,EXP8c_testRsp_rv,471,[],choice-response,Lap,634873c263630e047ced3765,2022-10-13 16:23:30-04:00,single_300ms_early_delay_2_tone_Lab_1,3813,97,EXP8c_maintaskTrials_2_s_rv
pass,6345b7f49677d36bd07c5a10,EXP8c_JF,0,2ab1f3c00a463a452d042a457c55214abd7f82feac1b545f6dcc94d6affdb2c1,2462.88123,FALSE,keypress,EXP8c_testRsp_rv,1360,[],choice-response,Lab,634873c263630e047ced3765,2022-10-13 16:23:30-04:00,single_300ms_late_delay_2_tone_Lab_7,4978,98,EXP8c_maintaskTrials_2_l_rv
pass,6345b7f49677d36bd07c5a10,EXP8c_JF,0,2ab1f3c00a463a452d042a457c55214abd7f82feac1b545f6dcc94d6affdb2c1,2462.88123,FALSE,keypress,EXP8c_testRsp_rv,1423,[],choice-response,Lap,634873c263630e047ced3765,2022-10-13 16:23:30-04:00,single_300ms_early_delay_2_tone_Lab_3,4834,99,EXP8c_maintaskTrials_2_s_rv
pass,6345b7f49677d36bd07c5a10,EXP8c_JF,0,2ab1f3c00a463a452d042a457c55214abd7f82feac1b545f6dcc94d6affdb2c1,2462.88123,FALSE,keypress,EXP8c_testRsp_rv,2309,[],choice-response,Lab,634873c263630e047ced3765,2022-10-13 16:23:30-04:00,single_300ms_ontime_delay_2_tone_Lab_4,6023,100,EXP8c_maintaskTrials_2_s_rv
pass,6345b7f49677d36bd07c5a10,EXP8c_JF,0,2ab1f3c00a463a452d042a457c55214abd7f82feac1b545f6dcc94d6affdb2c1,2462.88123,FALSE,keypress,EXP8c_testRsp_rv,1488,[],choice-response,Lab,634873c263630e047ced3765,2022-10-13 16:23:30-04:00,single_300ms_ontime_delay_2_tone_Lab_7,5020,101,EXP8c_maintaskTrials_2_l_rv
pass,6345b7f49677d36bd07c5a10,EXP8c_JF,0,2ab1f3c00a463a452d042a457c55214abd7f82feac1b545f6dcc94d6affdb2c1,2462.88123,FALSE,keypress,EXP8c_testRsp_rv,1375,[],choice-response,Lab,634873c263630e047ced3765,2022-10-13 16:23:30-04:00,single_300ms_late_delay_2_tone_Lab_8,5102,102,EXP8c_maintaskTrials_2_l_rv
pass,6345b7f49677d36bd07c5a10,EXP8c_JF,0,2ab1f3c00a463a452d042a457c55214abd7f82feac1b545f6dcc94d6affdb2c1,2462.88123,FALSE,keypress,EXP8c_testRsp_rv,1430,[],choice-response,Lab,634873c263630e047ced3765,2022-10-13 16:23:30-04:00,single_300ms_early_delay_2_tone_Lab_5,5017,103,EXP8c_maintaskTrials_2_l_rv
pass,6345b7f49677d36bd07c5a10,EXP8c_JF,0,2ab1f3c00a463a452d042a457c55214abd7f82feac1b545f6dcc94d6affdb2c1,2462.88123,FALSE,keypress,EXP8c_testRsp_rv,717,[],choice-response,Lap,634873c263630e047ced3765,2022-10-13 16:23:30-04:00,single_300ms_late_delay_2_tone_Lab_4,4370,104,EXP8c_maintaskTrials_2_s_rv
pass,6345b7f49677d36bd07c5a10,EXP8c_JF,0,2ab1f3c00a463a452d042a457c55214abd7f82feac1b545f6dcc94d6affdb2c1,2462.88123,FALSE,keypress,EXP8c_testRsp_rv,815,[],choice-response,Lap,634873c263630e047ced3765,2022-10-13 16:23:30-04:00,single_300ms_ontime_delay_2_tone_Lab_1,4248,105,EXP8c_maintaskTrials_2_s_rv
pass,6345b7f49677d36bd07c5a10,EXP8c_JF,0,2ab1f3c00a463a452d042a457c55214abd7f82feac1b545f6dcc94d6affdb2c1,2462.88123,FALSE,keypress,EXP8c_testRsp_rv,632,[],choice-response,Lap,634873c263630e047ced3765,2022-10-13 16:23:30-04:00,single_300ms_early_delay_2_tone_Lab_2,4041,106,EXP8c_maintaskTrials_2_s_rv
pass,6345b7f49677d36bd07c5a10,EXP8c_JF,0,2ab1f3c00a463a452d042a457c55214abd7f82feac1b545f6dcc94d6affdb2c1,2462.88123,TRUE,keypress,cat_catchRsp,1910,['Cat meowing'],choice-response,Cat meowing,634873c263630e047ced3765,2022-10-13 16:23:30-04:00,cat_meowing,4964,107,Catch_cat
pass,6345b7f49677d36bd07c5a10,EXP8c_JF,0,2ab1f3c00a463a452d042a457c55214abd7f82feac1b545f6dcc94d6affdb2c1,2462.88123,FALSE,keypress,EXP8c_testRsp_rv,2219,[],choice-response,Lap,634873c263630e047ced3765,2022-10-13 16:23:30-04:00,single_300ms_late_delay_2_tone_Lab_1,5758,108,EXP8c_maintaskTrials_2_s_rv
pass,6345b7f49677d36bd07c5a10,EXP8c_JF,0,2ab1f3c00a463a452d042a457c55214abd7f82feac1b545f6dcc94d6affdb2c1,2462.88123,FALSE,keypress,EXP8c_testRsp_rv,1146,[],choice-response,Lap,634873c263630e047ced3765,2022-10-13 16:23:30-04:00,single_300ms_ontime_delay_2_tone_Lab_2,4691,109,EXP8c_maintaskTrials_2_s_rv
pass,6345b7f49677d36bd07c5a10,EXP8c_JF,0,2ab1f3c00a463a452d042a457c55214abd7f82feac1b545f6dcc94d6affdb2c1,2462.88123,FALSE,keypress,EXP8c_testRsp_rv,1297,[],choice-response,Lab,634873c263630e047ced3765,2022-10-13 16:23:30-04:00,single_300ms_late_delay_2_tone_Lab_6,4881,110,EXP8c_maintaskTrials_2_l_rv
pass,6345b7f49677d36bd07c5a10,EXP8c_JF,0,2ab1f3c00a463a452d042a457c55214abd7f82feac1b545f6dcc94d6affdb2c1,2462.88123,FALSE,keypress,EXP8c_testRsp_rv,1127,[],choice-response,Lab,634873c263630e047ced3765,2022-10-13 16:23:30-04:00,single_300ms_late_delay_2_tone_Lab_5,4751,111,EXP8c_maintaskTrials_2_l_rv
pass,6345b7f49677d36bd07c5a10,EXP8c_JF,0,2ab1f3c00a463a452d042a457c55214abd7f82feac1b545f6dcc94d6affdb2c1,2462.88123,FALSE,keypress,EXP8c_testRsp_rv,816,[],choice-response,Lap,634873c263630e047ced3765,2022-10-13 16:23:30-04:00,single_300ms_late_delay_2_tone_Lab_2,4321,112,EXP8c_maintaskTrials_2_s_rv
pass,6345b7f49677d36bd07c5a10,EXP8c_JF,0,2ab1f3c00a463a452d042a457c55214abd7f82feac1b545f6dcc94d6affdb2c1,2462.88123,FALSE,keypress,EXP8c_testRsp_rv,508,[],choice-response,Lab,634873c263630e047ced3765,2022-10-13 16:23:30-04:00,single_300ms_early_delay_2_tone_Lab_8,3974,113,EXP8c_maintaskTrials_2_l_rv
pass,6345b7f49677d36bd07c5a10,EXP8c_JF,0,2ab1f3c00a463a452d042a457c55214abd7f82feac1b545f6dcc94d6affdb2c1,2462.88123,FALSE,keypress,EXP8c_testRsp_rv,754,[],choice-response,Lab,634873c263630e047ced3765,2022-10-13 16:23:30-04:00,single_300ms_ontime_delay_2_tone_Lab_5,4351,114,EXP8c_maintaskTrials_2_l_rv
pass,6345b7f49677d36bd07c5a10,EXP8c_JF,0,2ab1f3c00a463a452d042a457c55214abd7f82feac1b545f6dcc94d6affdb2c1,2462.88123,FALSE,keypress,EXP8c_testRsp_rv,612,[],choice-response,Lab,634873c263630e047ced3765,2022-10-13 16:23:30-04:00,single_300ms_ontime_delay_2_tone_Lab_8,4197,115,EXP8c_maintaskTrials_2_l_rv
pass,6345b7f49677d36bd07c5a10,EXP8c_JF,0,2ab1f3c00a463a452d042a457c55214abd7f82feac1b545f6dcc94d6affdb2c1,2462.88123,FALSE,keypress,EXP8c_testRsp_rv,707,[],choice-response,Lap,634873c263630e047ced3765,2022-10-13 16:23:30-04:00,single_300ms_early_delay_2_tone_Lab_6,4155,116,EXP8c_maintaskTrials_2_l_rv
pass,6345b7f49677d36bd07c5a10,EXP8c_JF,0,2ab1f3c00a463a452d042a457c55214abd7f82feac1b545f6dcc94d6affdb2c1,2462.88123,FALSE,keypress,EXP8c_testRsp_rv,1897,[],choice-response,Lab,634873c263630e047ced3765,2022-10-13 16:23:30-04:00,single_300ms_ontime_delay_2_tone_Lab_6,5474,117,EXP8c_maintaskTrials_2_l_rv
pass,6345b7f49677d36bd07c5a10,EXP8c_JF,0,2ab1f3c00a463a452d042a457c55214abd7f82feac1b545f6dcc94d6affdb2c1,2462.88123,FALSE,keypress,EXP8c_testRsp_rv,860,[],choice-response,Lap,634873c263630e047ced3765,2022-10-13 16:23:30-04:00,single_300ms_late_delay_2_tone_Lab_3,4467,118,EXP8c_maintaskTrials_2_s_rv
pass,6345b7f49677d36bd07c5a10,EXP8c_JF,0,2ab1f3c00a463a452d042a457c55214abd7f82feac1b545f6dcc94d6affdb2c1,2462.88123,TRUE,keypress,cat_catchRsp,1276,['Cat meowing'],choice-response,Cat meowing,634873c263630e047ced3765,2022-10-13 16:23:30-04:00,cat_meowing,4342,119,Catch_cat
pass,6345b7f49677d36bd07c5a10,EXP8c_JF,0,2ab1f3c00a463a452d042a457c55214abd7f82feac1b545f6dcc94d6affdb2c1,2462.88123,FALSE,keypress,EXP8c_testRsp_rv,1353,[],choice-response,Lap,634873c263630e047ced3765,2022-10-13 16:23:30-04:00,single_300ms_ontime_delay_2_tone_Lab_3,4903,120,EXP8c_maintaskTrials_2_s_rv
pass,6345b7f49677d36bd07c5a10,EXP8c_JF,0,2ab1f3c00a463a452d042a457c55214abd7f82feac1b545f6dcc94d6affdb2c1,2462.88123,FALSE,keypress,EXP8c_testRsp_rv,5120,[],choice-response,Lap,634873c263630e047ced3765,2022-10-13 16:23:30-04:00,single_300ms_early_delay_2_tone_Lab_7,8548,121,EXP8c_maintaskTrials_2_l_rv
pass,6345b7f49677d36bd07c5a10,EXP8c_JF,0,2ab1f3c00a463a452d042a457c55214abd7f82feac1b545f6dcc94d6affdb2c1,2462.88123,FALSE,keypress,EXP8c_testRsp_rv,476,[],choice-response,Lap,634873c263630e047ced3765,2022-10-13 16:23:30-04:00,single_300ms_ontime_delay_2_tone_Lab_2,3899,122,EXP8c_maintaskTrials_2_s_rv
pass,6345b7f49677d36bd07c5a10,EXP8c_JF,0,2ab1f3c00a463a452d042a457c55214abd7f82feac1b545f6dcc94d6affdb2c1,2462.88123,FALSE,keypress,EXP8c_testRsp_rv,471,[],choice-response,Lab,634873c263630e047ced3765,2022-10-13 16:23:30-04:00,single_300ms_early_delay_2_tone_Lab_7,3904,123,EXP8c_maintaskTrials_2_l_rv
pass,6345b7f49677d36bd07c5a10,EXP8c_JF,0,2ab1f3c00a463a452d042a457c55214abd7f82feac1b545f6dcc94d6affdb2c1,2462.88123,FALSE,keypress,EXP8c_testRsp_rv,1224,[],choice-response,Lab,634873c263630e047ced3765,2022-10-13 16:23:30-04:00,single_300ms_ontime_delay_2_tone_Lab_6,4740,124,EXP8c_maintaskTrials_2_l_rv
pass,6345b7f49677d36bd07c5a10,EXP8c_JF,0,2ab1f3c00a463a452d042a457c55214abd7f82feac1b545f6dcc94d6affdb2c1,2462.88123,FALSE,keypress,EXP8c_testRsp_rv,1485,[],choice-response,Lap,634873c263630e047ced3765,2022-10-13 16:23:30-04:00,single_300ms_early_delay_2_tone_Lab_2,4977,125,EXP8c_maintaskTrials_2_s_rv
pass,6345b7f49677d36bd07c5a10,EXP8c_JF,0,2ab1f3c00a463a452d042a457c55214abd7f82feac1b545f6dcc94d6affdb2c1,2462.88123,FALSE,keypress,EXP8c_testRsp_rv,755,[],choice-response,Lap,634873c263630e047ced3765,2022-10-13 16:23:30-04:00,single_300ms_early_delay_2_tone_Lab_4,4147,126,EXP8c_maintaskTrials_2_s_rv
pass,6345b7f49677d36bd07c5a10,EXP8c_JF,0,2ab1f3c00a463a452d042a457c55214abd7f82feac1b545f6dcc94d6affdb2c1,2462.88123,FALSE,keypress,EXP8c_testRsp_rv,421,[],choice-response,Lap,634873c263630e047ced3765,2022-10-13 16:23:30-04:00,single_300ms_late_delay_2_tone_Lab_1,4040,127,EXP8c_maintaskTrials_2_s_rv
pass,6345b7f49677d36bd07c5a10,EXP8c_JF,0,2ab1f3c00a463a452d042a457c55214abd7f82feac1b545f6dcc94d6affdb2c1,2462.88123,FALSE,keypress,EXP8c_testRsp_rv,592,[],choice-response,Lab,634873c263630e047ced3765,2022-10-13 16:23:30-04:00,single_300ms_late_delay_2_tone_Lab_6,4201,128,EXP8c_maintaskTrials_2_l_rv
pass,6345b7f49677d36bd07c5a10,EXP8c_JF,0,2ab1f3c00a463a452d042a457c55214abd7f82feac1b545f6dcc94d6affdb2c1,2462.88123,FALSE,keypress,EXP8c_testRsp_rv,792,[],choice-response,Lap,634873c263630e047ced3765,2022-10-13 16:23:30-04:00,single_300ms_late_delay_2_tone_Lab_2,4353,129,EXP8c_maintaskTrials_2_s_rv
pass,6345b7f49677d36bd07c5a10,EXP8c_JF,0,2ab1f3c00a463a452d042a457c55214abd7f82feac1b545f6dcc94d6affdb2c1,2462.88123,FALSE,keypress,EXP8c_testRsp_rv,749,[],choice-response,Lap,634873c263630e047ced3765,2022-10-13 16:23:30-04:00,single_300ms_ontime_delay_2_tone_Lab_1,4248,130,EXP8c_maintaskTrials_2_s_rv
pass,6345b7f49677d36bd07c5a10,EXP8c_JF,0,2ab1f3c00a463a452d042a457c55214abd7f82feac1b545f6dcc94d6affdb2c1,2462.88123,TRUE,keypress,cat_catchRsp,1192,['Cat meowing'],choice-response,Cat meowing,634873c263630e047ced3765,2022-10-13 16:23:30-04:00,cat_meowing,4318,131,Catch_cat
pass,6345b7f49677d36bd07c5a10,EXP8c_JF,0,2ab1f3c00a463a452d042a457c55214abd7f82feac1b545f6dcc94d6affdb2c1,2462.88123,FALSE,keypress,EXP8c_testRsp_rv,940,[],choice-response,Lab,634873c263630e047ced3765,2022-10-13 16:23:30-04:00,single_300ms_ontime_delay_2_tone_Lab_8,4527,132,EXP8c_maintaskTrials_2_l_rv
pass,6345b7f49677d36bd07c5a10,EXP8c_JF,0,2ab1f3c00a463a452d042a457c55214abd7f82feac1b545f6dcc94d6affdb2c1,2462.88123,FALSE,keypress,EXP8c_testRsp_rv,4242,[],choice-response,Lab,634873c263630e047ced3765,2022-10-13 16:23:30-04:00,single_300ms_ontime_delay_2_tone_Lab_3,7685,133,EXP8c_maintaskTrials_2_s_rv
pass,6345b7f49677d36bd07c5a10,EXP8c_JF,0,2ab1f3c00a463a452d042a457c55214abd7f82feac1b545f6dcc94d6affdb2c1,2462.88123,FALSE,keypress,EXP8c_testRsp_rv,793,[],choice-response,Lap,634873c263630e047ced3765,2022-10-13 16:23:30-04:00,single_300ms_early_delay_2_tone_Lab_3,4131,134,EXP8c_maintaskTrials_2_s_rv
pass,6345b7f49677d36bd07c5a10,EXP8c_JF,0,2ab1f3c00a463a452d042a457c55214abd7f82feac1b545f6dcc94d6affdb2c1,2462.88123,FALSE,keypress,EXP8c_testRsp_rv,736,[],choice-response,Lab,634873c263630e047ced3765,2022-10-13 16:23:30-04:00,single_300ms_early_delay_2_tone_Lab_5,4131,135,EXP8c_maintaskTrials_2_l_rv
pass,6345b7f49677d36bd07c5a10,EXP8c_JF,0,2ab1f3c00a463a452d042a457c55214abd7f82feac1b545f6dcc94d6affdb2c1,2462.88123,FALSE,keypress,EXP8c_testRsp_rv,732,[],choice-response,Lab,634873c263630e047ced3765,2022-10-13 16:23:30-04:00,single_300ms_ontime_delay_2_tone_Lab_5,4204,136,EXP8c_maintaskTrials_2_l_rv
pass,6345b7f49677d36bd07c5a10,EXP8c_JF,0,2ab1f3c00a463a452d042a457c55214abd7f82feac1b545f6dcc94d6affdb2c1,2462.88123,FALSE,keypress,EXP8c_testRsp_rv,512,[],choice-response,Lab,634873c263630e047ced3765,2022-10-13 16:23:30-04:00,single_300ms_late_delay_2_tone_Lab_8,4168,137,EXP8c_maintaskTrials_2_l_rv
pass,6345b7f49677d36bd07c5a10,EXP8c_JF,0,2ab1f3c00a463a452d042a457c55214abd7f82feac1b545f6dcc94d6affdb2c1,2462.88123,FALSE,keypress,EXP8c_testRsp_rv,1530,[],choice-response,Lab,634873c263630e047ced3765,2022-10-13 16:23:30-04:00,single_300ms_ontime_delay_2_tone_Lab_4,5170,138,EXP8c_maintaskTrials_2_s_rv
pass,6345b7f49677d36bd07c5a10,EXP8c_JF,0,2ab1f3c00a463a452d042a457c55214abd7f82feac1b545f6dcc94d6affdb2c1,2462.88123,FALSE,keypress,EXP8c_testRsp_rv,638,[],choice-response,Lab,634873c263630e047ced3765,2022-10-13 16:23:30-04:00,single_300ms_early_delay_2_tone_Lab_8,4128,139,EXP8c_maintaskTrials_2_l_rv
pass,6345b7f49677d36bd07c5a10,EXP8c_JF,0,2ab1f3c00a463a452d042a457c55214abd7f82feac1b545f6dcc94d6affdb2c1,2462.88123,FALSE,keypress,EXP8c_testRsp_rv,1907,[],choice-response,Lap,634873c263630e047ced3765,2022-10-13 16:23:30-04:00,single_300ms_late_delay_2_tone_Lab_3,5503,140,EXP8c_maintaskTrials_2_s_rv
pass,6345b7f49677d36bd07c5a10,EXP8c_JF,0,2ab1f3c00a463a452d042a457c55214abd7f82feac1b545f6dcc94d6affdb2c1,2462.88123,FALSE,keypress,EXP8c_testRsp_rv,1307,[],choice-response,Lab,634873c263630e047ced3765,2022-10-13 16:23:30-04:00,single_300ms_ontime_delay_2_tone_Lab_7,4886,141,EXP8c_maintaskTrials_2_l_rv
pass,6345b7f49677d36bd07c5a10,EXP8c_JF,0,2ab1f3c00a463a452d042a457c55214abd7f82feac1b545f6dcc94d6affdb2c1,2462.88123,FALSE,keypress,EXP8c_testRsp_rv,2006,[],choice-response,Lab,634873c263630e047ced3765,2022-10-13 16:23:30-04:00,single_300ms_late_delay_2_tone_Lab_7,5688,142,EXP8c_maintaskTrials_2_l_rv
pass,6345b7f49677d36bd07c5a10,EXP8c_JF,0,2ab1f3c00a463a452d042a457c55214abd7f82feac1b545f6dcc94d6affdb2c1,2462.88123,TRUE,keypress,cat_catchRsp,376,['Cat meowing'],choice-response,Cat meowing,634873c263630e047ced3765,2022-10-13 16:23:30-04:00,cat_meowing,3410,143,Catch_cat
pass,6345b7f49677d36bd07c5a10,EXP8c_JF,0,2ab1f3c00a463a452d042a457c55214abd7f82feac1b545f6dcc94d6affdb2c1,2462.88123,FALSE,keypress,EXP8c_testRsp_rv,959,[],choice-response,Lap,634873c263630e047ced3765,2022-10-13 16:23:30-04:00,single_300ms_early_delay_2_tone_Lab_1,4333,144,EXP8c_maintaskTrials_2_s_rv
pass,6345b7f49677d36bd07c5a10,EXP8c_JF,0,2ab1f3c00a463a452d042a457c55214abd7f82feac1b545f6dcc94d6affdb2c1,2462.88123,FALSE,keypress,EXP8c_testRsp_rv,659,[],choice-response,Lab,634873c263630e047ced3765,2022-10-13 16:23:30-04:00,single_300ms_late_delay_2_tone_Lab_5,4234,145,EXP8c_maintaskTrials_2_l_rv
pass,6345b7f49677d36bd07c5a10,EXP8c_JF,0,2ab1f3c00a463a452d042a457c55214abd7f82feac1b545f6dcc94d6affdb2c1,2462.88123,FALSE,keypress,EXP8c_testRsp_rv,911,[],choice-response,Lab,634873c263630e047ced3765,2022-10-13 16:23:30-04:00,single_300ms_early_delay_2_tone_Lab_6,4426,146,EXP8c_maintaskTrials_2_l_rv
pass,6345b7f49677d36bd07c5a10,EXP8c_JF,0,2ab1f3c00a463a452d042a457c55214abd7f82feac1b545f6dcc94d6affdb2c1,2462.88123,FALSE,keypress,EXP8c_testRsp_rv,1896,[],choice-response,Lab,634873c263630e047ced3765,2022-10-13 16:23:30-04:00,single_300ms_late_delay_2_tone_Lab_4,5467,147,EXP8c_maintaskTrials_2_s_rv
pass,6345b7f49677d36bd07c5a10,EXP8c_JF,0,2ab1f3c00a463a452d042a457c55214abd7f82feac1b545f6dcc94d6affdb2c1,2462.88123,FALSE,keypress,EXP8c_testRsp_rv,1949,[],choice-response,Lab,634873c263630e047ced3765,2022-10-13 16:23:30-04:00,single_300ms_late_delay_2_tone_Lab_7,5581,148,EXP8c_maintaskTrials_2_l_rv
pass,6345b7f49677d36bd07c5a10,EXP8c_JF,0,2ab1f3c00a463a452d042a457c55214abd7f82feac1b545f6dcc94d6affdb2c1,2462.88123,FALSE,keypress,EXP8c_testRsp_rv,1226,[],choice-response,Lab,634873c263630e047ced3765,2022-10-13 16:23:30-04:00,single_300ms_early_delay_2_tone_Lab_8,4744,149,EXP8c_maintaskTrials_2_l_rv
pass,6345b7f49677d36bd07c5a10,EXP8c_JF,0,2ab1f3c00a463a452d042a457c55214abd7f82feac1b545f6dcc94d6affdb2c1,2462.88123,FALSE,keypress,EXP8c_testRsp_rv,3459,[],choice-response,Lap,634873c263630e047ced3765,2022-10-13 16:23:30-04:00,single_300ms_ontime_delay_2_tone_Lab_6,6985,150,EXP8c_maintaskTrials_2_l_rv
pass,6345b7f49677d36bd07c5a10,EXP8c_JF,0,2ab1f3c00a463a452d042a457c55214abd7f82feac1b545f6dcc94d6affdb2c1,2462.88123,FALSE,keypress,EXP8c_testRsp_rv,312,[],choice-response,Lap,634873c263630e047ced3765,2022-10-13 16:23:30-04:00,single_300ms_ontime_delay_2_tone_Lab_1,3791,151,EXP8c_maintaskTrials_2_s_rv
pass,6345b7f49677d36bd07c5a10,EXP8c_JF,0,2ab1f3c00a463a452d042a457c55214abd7f82feac1b545f6dcc94d6affdb2c1,2462.88123,FALSE,keypress,EXP8c_testRsp_rv,722,[],choice-response,Lab,634873c263630e047ced3765,2022-10-13 16:23:30-04:00,single_300ms_late_delay_2_tone_Lab_8,4358,152,EXP8c_maintaskTrials_2_l_rv
pass,6345b7f49677d36bd07c5a10,EXP8c_JF,0,2ab1f3c00a463a452d042a457c55214abd7f82feac1b545f6dcc94d6affdb2c1,2462.88123,FALSE,keypress,EXP8c_testRsp_rv,545,[],choice-response,Lap,634873c263630e047ced3765,2022-10-13 16:23:30-04:00,single_300ms_early_delay_2_tone_Lab_1,3873,153,EXP8c_maintaskTrials_2_s_rv
pass,6345b7f49677d36bd07c5a10,EXP8c_JF,0,2ab1f3c00a463a452d042a457c55214abd7f82feac1b545f6dcc94d6affdb2c1,2462.88123,FALSE,keypress,EXP8c_testRsp_rv,703,[],choice-response,Lap,634873c263630e047ced3765,2022-10-13 16:23:30-04:00,single_300ms_ontime_delay_2_tone_Lab_3,4176,154,EXP8c_maintaskTrials_2_s_rv
pass,6345b7f49677d36bd07c5a10,EXP8c_JF,0,2ab1f3c00a463a452d042a457c55214abd7f82feac1b545f6dcc94d6affdb2c1,2462.88123,TRUE,keypress,cat_catchRsp,413,['Cat meowing'],choice-response,Cat meowing,634873c263630e047ced3765,2022-10-13 16:23:30-04:00,cat_meowing,3548,155,Catch_cat
pass,6345b7f49677d36bd07c5a10,EXP8c_JF,0,2ab1f3c00a463a452d042a457c55214abd7f82feac1b545f6dcc94d6affdb2c1,2462.88123,FALSE,keypress,EXP8c_testRsp_rv,508,[],choice-response,Lap,634873c263630e047ced3765,2022-10-13 16:23:30-04:00,single_300ms_ontime_delay_2_tone_Lab_2,3921,156,EXP8c_maintaskTrials_2_s_rv
pass,6345b7f49677d36bd07c5a10,EXP8c_JF,0,2ab1f3c00a463a452d042a457c55214abd7f82feac1b545f6dcc94d6affdb2c1,2462.88123,FALSE,keypress,EXP8c_testRsp_rv,2459,[],choice-response,Lab,634873c263630e047ced3765,2022-10-13 16:23:30-04:00,single_300ms_late_delay_2_tone_Lab_3,6043,157,EXP8c_maintaskTrials_2_s_rv
pass,6345b7f49677d36bd07c5a10,EXP8c_JF,0,2ab1f3c00a463a452d042a457c55214abd7f82feac1b545f6dcc94d6affdb2c1,2462.88123,FALSE,keypress,EXP8c_testRsp_rv,1250,[],choice-response,Lap,634873c263630e047ced3765,2022-10-13 16:23:30-04:00,single_300ms_ontime_delay_2_tone_Lab_7,4791,158,EXP8c_maintaskTrials_2_l_rv
pass,6345b7f49677d36bd07c5a10,EXP8c_JF,0,2ab1f3c00a463a452d042a457c55214abd7f82feac1b545f6dcc94d6affdb2c1,2462.88123,FALSE,keypress,EXP8c_testRsp_rv,2978,[],choice-response,Lab,634873c263630e047ced3765,2022-10-13 16:23:30-04:00,single_300ms_early_delay_2_tone_Lab_4,6346,159,EXP8c_maintaskTrials_2_s_rv
pass,6345b7f49677d36bd07c5a10,EXP8c_JF,0,2ab1f3c00a463a452d042a457c55214abd7f82feac1b545f6dcc94d6affdb2c1,2462.88123,FALSE,keypress,EXP8c_testRsp_rv,2599,[],choice-response,Lab,634873c263630e047ced3765,2022-10-13 16:23:30-04:00,single_300ms_ontime_delay_2_tone_Lab_4,6047,160,EXP8c_maintaskTrials_2_s_rv
pass,6345b7f49677d36bd07c5a10,EXP8c_JF,0,2ab1f3c00a463a452d042a457c55214abd7f82feac1b545f6dcc94d6affdb2c1,2462.88123,FALSE,keypress,EXP8c_testRsp_rv,586,[],choice-response,Lab,634873c263630e047ced3765,2022-10-13 16:23:30-04:00,single_300ms_ontime_delay_2_tone_Lab_5,4119,161,EXP8c_maintaskTrials_2_l_rv
pass,6345b7f49677d36bd07c5a10,EXP8c_JF,0,2ab1f3c00a463a452d042a457c55214abd7f82feac1b545f6dcc94d6affdb2c1,2462.88123,FALSE,keypress,EXP8c_testRsp_rv,3006,[],choice-response,Lab,634873c263630e047ced3765,2022-10-13 16:23:30-04:00,single_300ms_early_delay_2_tone_Lab_3,6350,162,EXP8c_maintaskTrials_2_s_rv
pass,6345b7f49677d36bd07c5a10,EXP8c_JF,0,2ab1f3c00a463a452d042a457c55214abd7f82feac1b545f6dcc94d6affdb2c1,2462.88123,FALSE,keypress,EXP8c_testRsp_rv,531,[],choice-response,Lap,634873c263630e047ced3765,2022-10-13 16:23:30-04:00,single_300ms_late_delay_2_tone_Lab_1,4102,163,EXP8c_maintaskTrials_2_s_rv
pass,6345b7f49677d36bd07c5a10,EXP8c_JF,0,2ab1f3c00a463a452d042a457c55214abd7f82feac1b545f6dcc94d6affdb2c1,2462.88123,FALSE,keypress,EXP8c_testRsp_rv,449,[],choice-response,Lab,634873c263630e047ced3765,2022-10-13 16:23:30-04:00,single_300ms_early_delay_2_tone_Lab_5,3896,164,EXP8c_maintaskTrials_2_l_rv
pass,6345b7f49677d36bd07c5a10,EXP8c_JF,0,2ab1f3c00a463a452d042a457c55214abd7f82feac1b545f6dcc94d6affdb2c1,2462.88123,FALSE,keypress,EXP8c_testRsp_rv,794,[],choice-response,Lab,634873c263630e047ced3765,2022-10-13 16:23:30-04:00,single_300ms_early_delay_2_tone_Lab_6,4202,165,EXP8c_maintaskTrials_2_l_rv
pass,6345b7f49677d36bd07c5a10,EXP8c_JF,0,2ab1f3c00a463a452d042a457c55214abd7f82feac1b545f6dcc94d6affdb2c1,2462.88123,FALSE,keypress,EXP8c_testRsp_rv,909,[],choice-response,Lap,634873c263630e047ced3765,2022-10-13 16:23:30-04:00,single_300ms_late_delay_2_tone_Lab_2,4522,166,EXP8c_maintaskTrials_2_s_rv
pass,6345b7f49677d36bd07c5a10,EXP8c_JF,0,2ab1f3c00a463a452d042a457c55214abd7f82feac1b545f6dcc94d6affdb2c1,2462.88123,TRUE,keypress,cat_catchRsp,2452,['Cat meowing'],choice-response,Cat meowing,634873c263630e047ced3765,2022-10-13 16:23:30-04:00,cat_meowing,5502,167,Catch_cat
pass,6345b7f49677d36bd07c5a10,EXP8c_JF,0,2ab1f3c00a463a452d042a457c55214abd7f82feac1b545f6dcc94d6affdb2c1,2462.88123,FALSE,keypress,EXP8c_testRsp_rv,942,[],choice-response,Lab,634873c263630e047ced3765,2022-10-13 16:23:30-04:00,single_300ms_late_delay_2_tone_Lab_4,4501,168,EXP8c_maintaskTrials_2_s_rv
pass,6345b7f49677d36bd07c5a10,EXP8c_JF,0,2ab1f3c00a463a452d042a457c55214abd7f82feac1b545f6dcc94d6affdb2c1,2462.88123,FALSE,keypress,EXP8c_testRsp_rv,818,[],choice-response,Lab,634873c263630e047ced3765,2022-10-13 16:23:30-04:00,single_300ms_early_delay_2_tone_Lab_7,4231,169,EXP8c_maintaskTrials_2_l_rv
pass,6345b7f49677d36bd07c5a10,EXP8c_JF,0,2ab1f3c00a463a452d042a457c55214abd7f82feac1b545f6dcc94d6affdb2c1,2462.88123,FALSE,keypress,EXP8c_testRsp_rv,2125,[],choice-response,Lab,634873c263630e047ced3765,2022-10-13 16:23:30-04:00,single_300ms_ontime_delay_2_tone_Lab_8,5687,170,EXP8c_maintaskTrials_2_l_rv
pass,6345b7f49677d36bd07c5a10,EXP8c_JF,0,2ab1f3c00a463a452d042a457c55214abd7f82feac1b545f6dcc94d6affdb2c1,2462.88123,FALSE,keypress,EXP8c_testRsp_rv,591,[],choice-response,Lap,634873c263630e047ced3765,2022-10-13 16:23:30-04:00,single_300ms_early_delay_2_tone_Lab_2,3937,171,EXP8c_maintaskTrials_2_s_rv
pass,6345b7f49677d36bd07c5a10,EXP8c_JF,0,2ab1f3c00a463a452d042a457c55214abd7f82feac1b545f6dcc94d6affdb2c1,2462.88123,FALSE,keypress,EXP8c_testRsp_rv,1042,[],choice-response,Lab,634873c263630e047ced3765,2022-10-13 16:23:30-04:00,single_300ms_late_delay_2_tone_Lab_5,4623,172,EXP8c_maintaskTrials_2_l_rv
pass,6345b7f49677d36bd07c5a10,EXP8c_JF,0,2ab1f3c00a463a452d042a457c55214abd7f82feac1b545f6dcc94d6affdb2c1,2462.88123,FALSE,keypress,EXP8c_testRsp_rv,744,[],choice-response,Lab,634873c263630e047ced3765,2022-10-13 16:23:30-04:00,single_300ms_late_delay_2_tone_Lab_6,4431,173,EXP8c_maintaskTrials_2_l_rv
pass,6345b7f49677d36bd07c5a10,EXP8c_JF,0,2ab1f3c00a463a452d042a457c55214abd7f82feac1b545f6dcc94d6affdb2c1,2462.88123,FALSE,keypress,EXP8c_testRsp_rv,1145,[],choice-response,Lab,634873c263630e047ced3765,2022-10-13 16:23:30-04:00,single_300ms_early_delay_2_tone_Lab_8,4678,174,EXP8c_maintaskTrials_2_l_rv
pass,6345b7f49677d36bd07c5a10,EXP8c_JF,0,2ab1f3c00a463a452d042a457c55214abd7f82feac1b545f6dcc94d6affdb2c1,2462.88123,FALSE,keypress,EXP8c_testRsp_rv,3587,[],choice-response,Lab,634873c263630e047ced3765,2022-10-13 16:23:30-04:00,single_300ms_early_delay_2_tone_Lab_4,6970,175,EXP8c_maintaskTrials_2_s_rv
pass,6345b7f49677d36bd07c5a10,EXP8c_JF,0,2ab1f3c00a463a452d042a457c55214abd7f82feac1b545f6dcc94d6affdb2c1,2462.88123,FALSE,keypress,EXP8c_testRsp_rv,531,[],choice-response,Lap,634873c263630e047ced3765,2022-10-13 16:23:30-04:00,single_300ms_early_delay_2_tone_Lab_2,3869,176,EXP8c_maintaskTrials_2_s_rv
pass,6345b7f49677d36bd07c5a10,EXP8c_JF,0,2ab1f3c00a463a452d042a457c55214abd7f82feac1b545f6dcc94d6affdb2c1,2462.88123,FALSE,keypress,EXP8c_testRsp_rv,688,[],choice-response,Lap,634873c263630e047ced3765,2022-10-13 16:23:30-04:00,single_300ms_late_delay_2_tone_Lab_3,4337,177,EXP8c_maintaskTrials_2_s_rv
pass,6345b7f49677d36bd07c5a10,EXP8c_JF,0,2ab1f3c00a463a452d042a457c55214abd7f82feac1b545f6dcc94d6affdb2c1,2462.88123,FALSE,keypress,EXP8c_testRsp_rv,747,[],choice-response,Lap,634873c263630e047ced3765,2022-10-13 16:23:30-04:00,single_300ms_ontime_delay_2_tone_Lab_2,4244,178,EXP8c_maintaskTrials_2_s_rv
pass,6345b7f49677d36bd07c5a10,EXP8c_JF,0,2ab1f3c00a463a452d042a457c55214abd7f82feac1b545f6dcc94d6affdb2c1,2462.88123,TRUE,keypress,cat_catchRsp,659,['Cat meowing'],choice-response,Cat meowing,634873c263630e047ced3765,2022-10-13 16:23:30-04:00,cat_meowing,3737,179,Catch_cat
pass,6345b7f49677d36bd07c5a10,EXP8c_JF,0,2ab1f3c00a463a452d042a457c55214abd7f82feac1b545f6dcc94d6affdb2c1,2462.88123,FALSE,keypress,EXP8c_testRsp_rv,1714,[],choice-response,Lab,634873c263630e047ced3765,2022-10-13 16:23:30-04:00,single_300ms_early_delay_2_tone_Lab_3,5137,180,EXP8c_maintaskTrials_2_s_rv
pass,6345b7f49677d36bd07c5a10,EXP8c_JF,0,2ab1f3c00a463a452d042a457c55214abd7f82feac1b545f6dcc94d6affdb2c1,2462.88123,FALSE,keypress,EXP8c_testRsp_rv,1011,[],choice-response,Lap,634873c263630e047ced3765,2022-10-13 16:23:30-04:00,single_300ms_ontime_delay_2_tone_Lab_6,4531,181,EXP8c_maintaskTrials_2_l_rv
pass,6345b7f49677d36bd07c5a10,EXP8c_JF,0,2ab1f3c00a463a452d042a457c55214abd7f82feac1b545f6dcc94d6affdb2c1,2462.88123,FALSE,keypress,EXP8c_testRsp_rv,806,[],choice-response,Lab,634873c263630e047ced3765,2022-10-13 16:23:30-04:00,single_300ms_late_delay_2_tone_Lab_7,4524,182,EXP8c_maintaskTrials_2_l_rv
pass,6345b7f49677d36bd07c5a10,EXP8c_JF,0,2ab1f3c00a463a452d042a457c55214abd7f82feac1b545f6dcc94d6affdb2c1,2462.88123,FALSE,keypress,EXP8c_testRsp_rv,509,[],choice-response,Lab,634873c263630e047ced3765,2022-10-13 16:23:30-04:00,single_300ms_early_delay_2_tone_Lab_7,3944,183,EXP8c_maintaskTrials_2_l_rv
pass,6345b7f49677d36bd07c5a10,EXP8c_JF,0,2ab1f3c00a463a452d042a457c55214abd7f82feac1b545f6dcc94d6affdb2c1,2462.88123,FALSE,keypress,EXP8c_testRsp_rv,720,[],choice-response,Lab,634873c263630e047ced3765,2022-10-13 16:23:30-04:00,single_300ms_late_delay_2_tone_Lab_6,4379,184,EXP8c_maintaskTrials_2_l_rv
pass,6345b7f49677d36bd07c5a10,EXP8c_JF,0,2ab1f3c00a463a452d042a457c55214abd7f82feac1b545f6dcc94d6affdb2c1,2462.88123,FALSE,keypress,EXP8c_testRsp_rv,2542,[],choice-response,Lab,634873c263630e047ced3765,2022-10-13 16:23:30-04:00,single_300ms_ontime_delay_2_tone_Lab_4,5999,185,EXP8c_maintaskTrials_2_s_rv
pass,6345b7f49677d36bd07c5a10,EXP8c_JF,0,2ab1f3c00a463a452d042a457c55214abd7f82feac1b545f6dcc94d6affdb2c1,2462.88123,FALSE,keypress,EXP8c_testRsp_rv,1202,[],choice-response,Lap,634873c263630e047ced3765,2022-10-13 16:23:30-04:00,single_300ms_late_delay_2_tone_Lab_2,4727,186,EXP8c_maintaskTrials_2_s_rv
pass,6345b7f49677d36bd07c5a10,EXP8c_JF,0,2ab1f3c00a463a452d042a457c55214abd7f82feac1b545f6dcc94d6affdb2c1,2462.88123,FALSE,keypress,EXP8c_testRsp_rv,830,[],choice-response,Lab,634873c263630e047ced3765,2022-10-13 16:23:30-04:00,single_300ms_late_delay_2_tone_Lab_8,4485,187,EXP8c_maintaskTrials_2_l_rv
pass,6345b7f49677d36bd07c5a10,EXP8c_JF,0,2ab1f3c00a463a452d042a457c55214abd7f82feac1b545f6dcc94d6affdb2c1,2462.88123,FALSE,keypress,EXP8c_testRsp_rv,1772,[],choice-response,Lab,634873c263630e047ced3765,2022-10-13 16:23:30-04:00,single_300ms_early_delay_2_tone_Lab_5,5287,188,EXP8c_maintaskTrials_2_l_rv
pass,6345b7f49677d36bd07c5a10,EXP8c_JF,0,2ab1f3c00a463a452d042a457c55214abd7f82feac1b545f6dcc94d6affdb2c1,2462.88123,FALSE,keypress,EXP8c_testRsp_rv,661,[],choice-response,Lap,634873c263630e047ced3765,2022-10-13 16:23:30-04:00,single_300ms_ontime_delay_2_tone_Lab_3,4101,189,EXP8c_maintaskTrials_2_s_rv
pass,6345b7f49677d36bd07c5a10,EXP8c_JF,0,2ab1f3c00a463a452d042a457c55214abd7f82feac1b545f6dcc94d6affdb2c1,2462.88123,FALSE,keypress,EXP8c_testRsp_rv,587,[],choice-response,Lap,634873c263630e047ced3765,2022-10-13 16:23:30-04:00,single_300ms_late_delay_2_tone_Lab_1,4084,190,EXP8c_maintaskTrials_2_s_rv
pass,6345b7f49677d36bd07c5a10,EXP8c_JF,0,2ab1f3c00a463a452d042a457c55214abd7f82feac1b545f6dcc94d6affdb2c1,2462.88123,TRUE,keypress,cat_catchRsp,426,['Cat meowing'],choice-response,Cat meowing,634873c263630e047ced3765,2022-10-13 16:23:30-04:00,cat_meowing,3565,191,Catch_cat
pass,6345b7f49677d36bd07c5a10,EXP8c_JF,0,2ab1f3c00a463a452d042a457c55214abd7f82feac1b545f6dcc94d6affdb2c1,2462.88123,FALSE,keypress,EXP8c_testRsp_rv,886,[],choice-response,Lab,634873c263630e047ced3765,2022-10-13 16:23:30-04:00,single_300ms_ontime_delay_2_tone_Lab_5,4462,192,EXP8c_maintaskTrials_2_l_rv
pass,6345b7f49677d36bd07c5a10,EXP8c_JF,0,2ab1f3c00a463a452d042a457c55214abd7f82feac1b545f6dcc94d6affdb2c1,2462.88123,FALSE,keypress,EXP8c_testRsp_rv,281,[],choice-response,Lap,634873c263630e047ced3765,2022-10-13 16:23:30-04:00,single_300ms_early_delay_2_tone_Lab_1,3625,193,EXP8c_maintaskTrials_2_s_rv
pass,6345b7f49677d36bd07c5a10,EXP8c_JF,0,2ab1f3c00a463a452d042a457c55214abd7f82feac1b545f6dcc94d6affdb2c1,2462.88123,FALSE,keypress,EXP8c_testRsp_rv,247,[],choice-response,Lab,634873c263630e047ced3765,2022-10-13 16:23:30-04:00,single_300ms_late_delay_2_tone_Lab_5,3927,194,EXP8c_maintaskTrials_2_l_rv
pass,6345b7f49677d36bd07c5a10,EXP8c_JF,0,2ab1f3c00a463a452d042a457c55214abd7f82feac1b545f6dcc94d6affdb2c1,2462.88123,FALSE,keypress,EXP8c_testRsp_rv,1463,[],choice-response,Lab,634873c263630e047ced3765,2022-10-13 16:23:30-04:00,single_300ms_early_delay_2_tone_Lab_6,4918,195,EXP8c_maintaskTrials_2_l_rv
pass,6345b7f49677d36bd07c5a10,EXP8c_JF,0,2ab1f3c00a463a452d042a457c55214abd7f82feac1b545f6dcc94d6affdb2c1,2462.88123,FALSE,keypress,EXP8c_testRsp_rv,1046,[],choice-response,Lab,634873c263630e047ced3765,2022-10-13 16:23:30-04:00,single_300ms_ontime_delay_2_tone_Lab_8,4616,196,EXP8c_maintaskTrials_2_l_rv
pass,6345b7f49677d36bd07c5a10,EXP8c_JF,0,2ab1f3c00a463a452d042a457c55214abd7f82feac1b545f6dcc94d6affdb2c1,2462.88123,FALSE,keypress,EXP8c_testRsp_rv,364,[],choice-response,Lap,634873c263630e047ced3765,2022-10-13 16:23:30-04:00,single_300ms_ontime_delay_2_tone_Lab_1,3782,197,EXP8c_maintaskTrials_2_s_rv
pass,6345b7f49677d36bd07c5a10,EXP8c_JF,0,2ab1f3c00a463a452d042a457c55214abd7f82feac1b545f6dcc94d6affdb2c1,2462.88123,FALSE,keypress,EXP8c_testRsp_rv,709,[],choice-response,Lab,634873c263630e047ced3765,2022-10-13 16:23:30-04:00,single_300ms_late_delay_2_tone_Lab_4,4386,198,EXP8c_maintaskTrials_2_s_rv
pass,6345b7f49677d36bd07c5a10,EXP8c_JF,0,2ab1f3c00a463a452d042a457c55214abd7f82feac1b545f6dcc94d6affdb2c1,2462.88123,FALSE,keypress,EXP8c_testRsp_rv,529,[],choice-response,Lab,634873c263630e047ced3765,2022-10-13 16:23:30-04:00,single_300ms_ontime_delay_2_tone_Lab_7,4188,199,EXP8c_maintaskTrials_2_l_rv
pass,6345b7f49677d36bd07c5a10,EXP8c_JF,0,2ab1f3c00a463a452d042a457c55214abd7f82feac1b545f6dcc94d6affdb2c1,2462.88123,FALSE,keypress,EXP8c_testRsp_rv,895,[],choice-response,Lab,634873c263630e047ced3765,2022-10-13 16:23:30-04:00,single_300ms_late_delay_2_tone_Lab_5,4541,200,EXP8c_maintaskTrials_2_l_rv
pass,6345b7f49677d36bd07c5a10,EXP8c_JF,0,2ab1f3c00a463a452d042a457c55214abd7f82feac1b545f6dcc94d6affdb2c1,2462.88123,FALSE,keypress,EXP8c_testRsp_rv,1216,[],choice-response,Lab,634873c263630e047ced3765,2022-10-13 16:23:30-04:00,single_300ms_ontime_delay_2_tone_Lab_5,4705,201,EXP8c_maintaskTrials_2_l_rv
pass,6345b7f49677d36bd07c5a10,EXP8c_JF,0,2ab1f3c00a463a452d042a457c55214abd7f82feac1b545f6dcc94d6affdb2c1,2462.88123,FALSE,keypress,EXP8c_testRsp_rv,437,[],choice-response,Lab,634873c263630e047ced3765,2022-10-13 16:23:30-04:00,single_300ms_late_delay_2_tone_Lab_8,4068,202,EXP8c_maintaskTrials_2_l_rv
pass,6345b7f49677d36bd07c5a10,EXP8c_JF,0,2ab1f3c00a463a452d042a457c55214abd7f82feac1b545f6dcc94d6affdb2c1,2462.88123,TRUE,keypress,cat_catchRsp,407,['Cat meowing'],choice-response,Cat meowing,634873c263630e047ced3765,2022-10-13 16:23:30-04:00,cat_meowing,3478,203,Catch_cat
pass,6345b7f49677d36bd07c5a10,EXP8c_JF,0,2ab1f3c00a463a452d042a457c55214abd7f82feac1b545f6dcc94d6affdb2c1,2462.88123,FALSE,keypress,EXP8c_testRsp_rv,2854,[],choice-response,Lab,634873c263630e047ced3765,2022-10-13 16:23:30-04:00,single_300ms_early_delay_2_tone_Lab_3,6209,204,EXP8c_maintaskTrials_2_s_rv
pass,6345b7f49677d36bd07c5a10,EXP8c_JF,0,2ab1f3c00a463a452d042a457c55214abd7f82feac1b545f6dcc94d6affdb2c1,2462.88123,FALSE,keypress,EXP8c_testRsp_rv,2225,[],choice-response,Lab,634873c263630e047ced3765,2022-10-13 16:23:30-04:00,single_300ms_ontime_delay_2_tone_Lab_2,5700,205,EXP8c_maintaskTrials_2_s_rv
pass,6345b7f49677d36bd07c5a10,EXP8c_JF,0,2ab1f3c00a463a452d042a457c55214abd7f82feac1b545f6dcc94d6affdb2c1,2462.88123,FALSE,keypress,EXP8c_testRsp_rv,598,[],choice-response,Lab,634873c263630e047ced3765,2022-10-13 16:23:30-04:00,single_300ms_early_delay_2_tone_Lab_7,4080,206,EXP8c_maintaskTrials_2_l_rv
pass,6345b7f49677d36bd07c5a10,EXP8c_JF,0,2ab1f3c00a463a452d042a457c55214abd7f82feac1b545f6dcc94d6affdb2c1,2462.88123,FALSE,keypress,EXP8c_testRsp_rv,2354,[],choice-response,Lap,634873c263630e047ced3765,2022-10-13 16:23:30-04:00,single_300ms_ontime_delay_2_tone_Lab_3,5791,207,EXP8c_maintaskTrials_2_s_rv
pass,6345b7f49677d36bd07c5a10,EXP8c_JF,0,2ab1f3c00a463a452d042a457c55214abd7f82feac1b545f6dcc94d6affdb2c1,2462.88123,FALSE,keypress,EXP8c_testRsp_rv,1275,[],choice-response,Lap,634873c263630e047ced3765,2022-10-13 16:23:30-04:00,single_300ms_late_delay_2_tone_Lab_1,4864,208,EXP8c_maintaskTrials_2_s_rv
pass,6345b7f49677d36bd07c5a10,EXP8c_JF,0,2ab1f3c00a463a452d042a457c55214abd7f82feac1b545f6dcc94d6affdb2c1,2462.88123,FALSE,keypress,EXP8c_testRsp_rv,2626,[],choice-response,Lab,634873c263630e047ced3765,2022-10-13 16:23:30-04:00,single_300ms_early_delay_2_tone_Lab_5,6041,209,EXP8c_maintaskTrials_2_l_rv
pass,6345b7f49677d36bd07c5a10,EXP8c_JF,0,2ab1f3c00a463a452d042a457c55214abd7f82feac1b545f6dcc94d6affdb2c1,2462.88123,FALSE,keypress,EXP8c_testRsp_rv,1079,[],choice-response,Lab,634873c263630e047ced3765,2022-10-13 16:23:30-04:00,single_300ms_ontime_delay_2_tone_Lab_8,4702,210,EXP8c_maintaskTrials_2_l_rv
pass,6345b7f49677d36bd07c5a10,EXP8c_JF,0,2ab1f3c00a463a452d042a457c55214abd7f82feac1b545f6dcc94d6affdb2c1,2462.88123,FALSE,keypress,EXP8c_testRsp_rv,3147,[],choice-response,Lap,634873c263630e047ced3765,2022-10-13 16:23:30-04:00,single_300ms_ontime_delay_2_tone_Lab_4,6736,211,EXP8c_maintaskTrials_2_s_rv
pass,6345b7f49677d36bd07c5a10,EXP8c_JF,0,2ab1f3c00a463a452d042a457c55214abd7f82feac1b545f6dcc94d6affdb2c1,2462.88123,FALSE,keypress,EXP8c_testRsp_rv,747,[],choice-response,Lab,634873c263630e047ced3765,2022-10-13 16:23:30-04:00,single_300ms_early_delay_2_tone_Lab_6,4269,212,EXP8c_maintaskTrials_2_l_rv
pass,6345b7f49677d36bd07c5a10,EXP8c_JF,0,2ab1f3c00a463a452d042a457c55214abd7f82feac1b545f6dcc94d6affdb2c1,2462.88123,FALSE,keypress,EXP8c_testRsp_rv,677,[],choice-response,Lap,634873c263630e047ced3765,2022-10-13 16:23:30-04:00,single_300ms_early_delay_2_tone_Lab_2,4013,213,EXP8c_maintaskTrials_2_s_rv
pass,6345b7f49677d36bd07c5a10,EXP8c_JF,0,2ab1f3c00a463a452d042a457c55214abd7f82feac1b545f6dcc94d6affdb2c1,2462.88123,FALSE,keypress,EXP8c_testRsp_rv,1284,[],choice-response,Lap,634873c263630e047ced3765,2022-10-13 16:23:30-04:00,single_300ms_early_delay_2_tone_Lab_4,4806,214,EXP8c_maintaskTrials_2_s_rv
pass,6345b7f49677d36bd07c5a10,EXP8c_JF,0,2ab1f3c00a463a452d042a457c55214abd7f82feac1b545f6dcc94d6affdb2c1,2462.88123,TRUE,keypress,cat_catchRsp,358,['Cat meowing'],choice-response,Cat meowing,634873c263630e047ced3765,2022-10-13 16:23:30-04:00,cat_meowing,3396,215,Catch_cat
pass,6345b7f49677d36bd07c5a10,EXP8c_JF,0,2ab1f3c00a463a452d042a457c55214abd7f82feac1b545f6dcc94d6affdb2c1,2462.88123,FALSE,keypress,EXP8c_testRsp_rv,1439,[],choice-response,Lab,634873c263630e047ced3765,2022-10-13 16:23:30-04:00,single_300ms_late_delay_2_tone_Lab_6,5108,216,EXP8c_maintaskTrials_2_l_rv
pass,6345b7f49677d36bd07c5a10,EXP8c_JF,0,2ab1f3c00a463a452d042a457c55214abd7f82feac1b545f6dcc94d6affdb2c1,2462.88123,FALSE,keypress,EXP8c_testRsp_rv,498,[],choice-response,Lap,634873c263630e047ced3765,2022-10-13 16:23:30-04:00,single_300ms_ontime_delay_2_tone_Lab_1,3952,217,EXP8c_maintaskTrials_2_s_rv
pass,6345b7f49677d36bd07c5a10,EXP8c_JF,0,2ab1f3c00a463a452d042a457c55214abd7f82feac1b545f6dcc94d6affdb2c1,2462.88123,FALSE,keypress,EXP8c_testRsp_rv,573,[],choice-response,Lab,634873c263630e047ced3765,2022-10-13 16:23:30-04:00,single_300ms_early_delay_2_tone_Lab_8,4034,218,EXP8c_maintaskTrials_2_l_rv
pass,6345b7f49677d36bd07c5a10,EXP8c_JF,0,2ab1f3c00a463a452d042a457c55214abd7f82feac1b545f6dcc94d6affdb2c1,2462.88123,FALSE,keypress,EXP8c_testRsp_rv,556,[],choice-response,Lap,634873c263630e047ced3765,2022-10-13 16:23:30-04:00,single_300ms_early_delay_2_tone_Lab_1,3867,219,EXP8c_maintaskTrials_2_s_rv
pass,6345b7f49677d36bd07c5a10,EXP8c_JF,0,2ab1f3c00a463a452d042a457c55214abd7f82feac1b545f6dcc94d6affdb2c1,2462.88123,FALSE,keypress,EXP8c_testRsp_rv,1380,[],choice-response,Lab,634873c263630e047ced3765,2022-10-13 16:23:30-04:00,single_300ms_late_delay_2_tone_Lab_3,4916,220,EXP8c_maintaskTrials_2_s_rv
pass,6345b7f49677d36bd07c5a10,EXP8c_JF,0,2ab1f3c00a463a452d042a457c55214abd7f82feac1b545f6dcc94d6affdb2c1,2462.88123,FALSE,keypress,EXP8c_testRsp_rv,1188,[],choice-response,Lap,634873c263630e047ced3765,2022-10-13 16:23:30-04:00,single_300ms_late_delay_2_tone_Lab_2,4834,221,EXP8c_maintaskTrials_2_s_rv
pass,6345b7f49677d36bd07c5a10,EXP8c_JF,0,2ab1f3c00a463a452d042a457c55214abd7f82feac1b545f6dcc94d6affdb2c1,2462.88123,FALSE,keypress,EXP8c_testRsp_rv,1204,[],choice-response,Lab,634873c263630e047ced3765,2022-10-13 16:23:30-04:00,single_300ms_ontime_delay_2_tone_Lab_7,4967,222,EXP8c_maintaskTrials_2_l_rv
pass,6345b7f49677d36bd07c5a10,EXP8c_JF,0,2ab1f3c00a463a452d042a457c55214abd7f82feac1b545f6dcc94d6affdb2c1,2462.88123,FALSE,keypress,EXP8c_testRsp_rv,608,[],choice-response,Lab,634873c263630e047ced3765,2022-10-13 16:23:30-04:00,single_300ms_late_delay_2_tone_Lab_7,4209,223,EXP8c_maintaskTrials_2_l_rv
pass,6345b7f49677d36bd07c5a10,EXP8c_JF,0,2ab1f3c00a463a452d042a457c55214abd7f82feac1b545f6dcc94d6affdb2c1,2462.88123,FALSE,keypress,EXP8c_testRsp_rv,706,[],choice-response,Lab,634873c263630e047ced3765,2022-10-13 16:23:30-04:00,single_300ms_late_delay_2_tone_Lab_4,4311,224,EXP8c_maintaskTrials_2_s_rv
pass,6345b7f49677d36bd07c5a10,EXP8c_JF,0,2ab1f3c00a463a452d042a457c55214abd7f82feac1b545f6dcc94d6affdb2c1,2462.88123,FALSE,keypress,EXP8c_testRsp_rv,585,[],choice-response,Lab,634873c263630e047ced3765,2022-10-13 16:23:30-04:00,single_300ms_ontime_delay_2_tone_Lab_6,4125,225,EXP8c_maintaskTrials_2_l_rv
pass,6345b7f49677d36bd07c5a10,EXP8c_JF,0,2ab1f3c00a463a452d042a457c55214abd7f82feac1b545f6dcc94d6affdb2c1,2462.88123,FALSE,keypress,EXP8c_testRsp_rv,350,[],choice-response,Lap,634873c263630e047ced3765,2022-10-13 16:23:30-04:00,single_300ms_late_delay_2_tone_Lab_2,3872,226,EXP8c_maintaskTrials_2_s_rv
pass,6345b7f49677d36bd07c5a10,EXP8c_JF,0,2ab1f3c00a463a452d042a457c55214abd7f82feac1b545f6dcc94d6affdb2c1,2462.88123,TRUE,keypress,cat_catchRsp,364,['Cat meowing'],choice-response,Cat meowing,634873c263630e047ced3765,2022-10-13 16:23:30-04:00,cat_meowing,3442,227,Catch_cat
pass,6345b7f49677d36bd07c5a10,EXP8c_JF,0,2ab1f3c00a463a452d042a457c55214abd7f82feac1b545f6dcc94d6affdb2c1,2462.88123,FALSE,keypress,EXP8c_testRsp_rv,520,[],choice-response,Lab,634873c263630e047ced3765,2022-10-13 16:23:30-04:00,single_300ms_ontime_delay_2_tone_Lab_6,4085,228,EXP8c_maintaskTrials_2_l_rv
pass,6345b7f49677d36bd07c5a10,EXP8c_JF,0,2ab1f3c00a463a452d042a457c55214abd7f82feac1b545f6dcc94d6affdb2c1,2462.88123,FALSE,keypress,EXP8c_testRsp_rv,3030,[],choice-response,Lab,634873c263630e047ced3765,2022-10-13 16:23:30-04:00,single_300ms_ontime_delay_2_tone_Lab_3,6557,229,EXP8c_maintaskTrials_2_s_rv
pass,6345b7f49677d36bd07c5a10,EXP8c_JF,0,2ab1f3c00a463a452d042a457c55214abd7f82feac1b545f6dcc94d6affdb2c1,2462.88123,FALSE,keypress,EXP8c_testRsp_rv,497,[],choice-response,Lap,634873c263630e047ced3765,2022-10-13 16:23:30-04:00,single_300ms_late_delay_2_tone_Lab_3,4077,230,EXP8c_maintaskTrials_2_s_rv
pass,6345b7f49677d36bd07c5a10,EXP8c_JF,0,2ab1f3c00a463a452d042a457c55214abd7f82feac1b545f6dcc94d6affdb2c1,2462.88123,FALSE,keypress,EXP8c_testRsp_rv,477,[],choice-response,Lab,634873c263630e047ced3765,2022-10-13 16:23:30-04:00,single_300ms_early_delay_2_tone_Lab_7,4063,231,EXP8c_maintaskTrials_2_l_rv
pass,6345b7f49677d36bd07c5a10,EXP8c_JF,0,2ab1f3c00a463a452d042a457c55214abd7f82feac1b545f6dcc94d6affdb2c1,2462.88123,FALSE,keypress,EXP8c_testRsp_rv,533,[],choice-response,Lab,634873c263630e047ced3765,2022-10-13 16:23:30-04:00,single_300ms_ontime_delay_2_tone_Lab_7,4042,232,EXP8c_maintaskTrials_2_l_rv
pass,6345b7f49677d36bd07c5a10,EXP8c_JF,0,2ab1f3c00a463a452d042a457c55214abd7f82feac1b545f6dcc94d6affdb2c1,2462.88123,FALSE,keypress,EXP8c_testRsp_rv,949,[],choice-response,Lab,634873c263630e047ced3765,2022-10-13 16:23:30-04:00,single_300ms_early_delay_2_tone_Lab_5,4379,233,EXP8c_maintaskTrials_2_l_rv
pass,6345b7f49677d36bd07c5a10,EXP8c_JF,0,2ab1f3c00a463a452d042a457c55214abd7f82feac1b545f6dcc94d6affdb2c1,2462.88123,FALSE,keypress,EXP8c_testRsp_rv,490,[],choice-response,Lap,634873c263630e047ced3765,2022-10-13 16:23:30-04:00,single_300ms_late_delay_2_tone_Lab_1,3993,234,EXP8c_maintaskTrials_2_s_rv
pass,6345b7f49677d36bd07c5a10,EXP8c_JF,0,2ab1f3c00a463a452d042a457c55214abd7f82feac1b545f6dcc94d6affdb2c1,2462.88123,FALSE,keypress,EXP8c_testRsp_rv,364,[],choice-response,Lab,634873c263630e047ced3765,2022-10-13 16:23:30-04:00,single_300ms_late_delay_2_tone_Lab_7,4081,235,EXP8c_maintaskTrials_2_l_rv
pass,6345b7f49677d36bd07c5a10,EXP8c_JF,0,2ab1f3c00a463a452d042a457c55214abd7f82feac1b545f6dcc94d6affdb2c1,2462.88123,FALSE,keypress,EXP8c_testRsp_rv,779,[],choice-response,Lab,634873c263630e047ced3765,2022-10-13 16:23:30-04:00,single_300ms_ontime_delay_2_tone_Lab_8,4430,236,EXP8c_maintaskTrials_2_l_rv
pass,6345b7f49677d36bd07c5a10,EXP8c_JF,0,2ab1f3c00a463a452d042a457c55214abd7f82feac1b545f6dcc94d6affdb2c1,2462.88123,FALSE,keypress,EXP8c_testRsp_rv,1129,[],choice-response,Lab,634873c263630e047ced3765,2022-10-13 16:23:30-04:00,single_300ms_late_delay_2_tone_Lab_8,4830,237,EXP8c_maintaskTrials_2_l_rv
pass,6345b7f49677d36bd07c5a10,EXP8c_JF,0,2ab1f3c00a463a452d042a457c55214abd7f82feac1b545f6dcc94d6affdb2c1,2462.88123,FALSE,keypress,EXP8c_testRsp_rv,556,[],choice-response,Lap,634873c263630e047ced3765,2022-10-13 16:23:30-04:00,single_300ms_early_delay_2_tone_Lab_1,3875,238,EXP8c_maintaskTrials_2_s_rv
pass,6345b7f49677d36bd07c5a10,EXP8c_JF,0,2ab1f3c00a463a452d042a457c55214abd7f82feac1b545f6dcc94d6affdb2c1,2462.88123,TRUE,keypress,cat_catchRsp,951,['Cat meowing'],choice-response,Cat meowing,634873c263630e047ced3765,2022-10-13 16:23:30-04:00,cat_meowing,4054,239,Catch_cat
pass,6345b7f49677d36bd07c5a10,EXP8c_JF,0,2ab1f3c00a463a452d042a457c55214abd7f82feac1b545f6dcc94d6affdb2c1,2462.88123,FALSE,keypress,EXP8c_testRsp_rv,4807,[],choice-response,Lap,634873c263630e047ced3765,2022-10-13 16:23:30-04:00,single_300ms_ontime_delay_2_tone_Lab_2,8259,240,EXP8c_maintaskTrials_2_s_rv
pass,6345b7f49677d36bd07c5a10,EXP8c_JF,0,2ab1f3c00a463a452d042a457c55214abd7f82feac1b545f6dcc94d6affdb2c1,2462.88123,FALSE,keypress,EXP8c_testRsp_rv,1409,[],choice-response,Lap,634873c263630e047ced3765,2022-10-13 16:23:30-04:00,single_300ms_ontime_delay_2_tone_Lab_1,4841,241,EXP8c_maintaskTrials_2_s_rv
pass,6345b7f49677d36bd07c5a10,EXP8c_JF,0,2ab1f3c00a463a452d042a457c55214abd7f82feac1b545f6dcc94d6affdb2c1,2462.88123,FALSE,keypress,EXP8c_testRsp_rv,682,[],choice-response,Lab,634873c263630e047ced3765,2022-10-13 16:23:30-04:00,single_300ms_late_delay_2_tone_Lab_6,4348,242,EXP8c_maintaskTrials_2_l_rv
pass,6345b7f49677d36bd07c5a10,EXP8c_JF,0,2ab1f3c00a463a452d042a457c55214abd7f82feac1b545f6dcc94d6affdb2c1,2462.88123,FALSE,keypress,EXP8c_testRsp_rv,574,[],choice-response,Lab,634873c263630e047ced3765,2022-10-13 16:23:30-04:00,single_300ms_early_delay_2_tone_Lab_6,3980,243,EXP8c_maintaskTrials_2_l_rv
pass,6345b7f49677d36bd07c5a10,EXP8c_JF,0,2ab1f3c00a463a452d042a457c55214abd7f82feac1b545f6dcc94d6affdb2c1,2462.88123,FALSE,keypress,EXP8c_testRsp_rv,2350,[],choice-response,Lab,634873c263630e047ced3765,2022-10-13 16:23:30-04:00,single_300ms_early_delay_2_tone_Lab_4,5755,244,EXP8c_maintaskTrials_2_s_rv
pass,6345b7f49677d36bd07c5a10,EXP8c_JF,0,2ab1f3c00a463a452d042a457c55214abd7f82feac1b545f6dcc94d6affdb2c1,2462.88123,FALSE,keypress,EXP8c_testRsp_rv,322,[],choice-response,Lap,634873c263630e047ced3765,2022-10-13 16:23:30-04:00,single_300ms_early_delay_2_tone_Lab_2,3658,245,EXP8c_maintaskTrials_2_s_rv
pass,6345b7f49677d36bd07c5a10,EXP8c_JF,0,2ab1f3c00a463a452d042a457c55214abd7f82feac1b545f6dcc94d6affdb2c1,2462.88123,FALSE,keypress,EXP8c_testRsp_rv,2582,[],choice-response,Lab,634873c263630e047ced3765,2022-10-13 16:23:30-04:00,single_300ms_early_delay_2_tone_Lab_8,6054,246,EXP8c_maintaskTrials_2_l_rv
pass,6345b7f49677d36bd07c5a10,EXP8c_JF,0,2ab1f3c00a463a452d042a457c55214abd7f82feac1b545f6dcc94d6affdb2c1,2462.88123,FALSE,keypress,EXP8c_testRsp_rv,347,[],choice-response,Lab,634873c263630e047ced3765,2022-10-13 16:23:30-04:00,single_300ms_late_delay_2_tone_Lab_5,3996,247,EXP8c_maintaskTrials_2_l_rv
pass,6345b7f49677d36bd07c5a10,EXP8c_JF,0,2ab1f3c00a463a452d042a457c55214abd7f82feac1b545f6dcc94d6affdb2c1,2462.88123,FALSE,keypress,EXP8c_testRsp_rv,314,[],choice-response,Lap,634873c263630e047ced3765,2022-10-13 16:23:30-04:00,single_300ms_early_delay_2_tone_Lab_3,3664,248,EXP8c_maintaskTrials_2_s_rv
pass,6345b7f49677d36bd07c5a10,EXP8c_JF,0,2ab1f3c00a463a452d042a457c55214abd7f82feac1b545f6dcc94d6affdb2c1,2462.88123,FALSE,keypress,EXP8c_testRsp_rv,1595,[],choice-response,Lab,634873c263630e047ced3765,2022-10-13 16:23:30-04:00,single_300ms_ontime_delay_2_tone_Lab_4,5070,249,EXP8c_maintaskTrials_2_s_rv
pass,6345b7f49677d36bd07c5a10,EXP8c_JF,0,2ab1f3c00a463a452d042a457c55214abd7f82feac1b545f6dcc94d6affdb2c1,2462.88123,FALSE,keypress,EXP8c_testRsp_rv,688,[],choice-response,Lap,634873c263630e047ced3765,2022-10-13 16:23:30-04:00,single_300ms_late_delay_2_tone_Lab_4,4278,250,EXP8c_maintaskTrials_2_s_rv
pass,6345b7f49677d36bd07c5a10,EXP8c_JF,0,2ab1f3c00a463a452d042a457c55214abd7f82feac1b545f6dcc94d6affdb2c1,2462.88123,TRUE,keypress,cat_catchRsp,592,['Cat meowing'],choice-response,Cat meowing,634873c263630e047ced3765,2022-10-13 16:23:30-04:00,cat_meowing,3716,251,Catch_cat
pass,6345b7f49677d36bd07c5a10,EXP8c_JF,0,2ab1f3c00a463a452d042a457c55214abd7f82feac1b545f6dcc94d6affdb2c1,2462.88123,FALSE,keypress,EXP8c_testRsp_rv,1232,[],choice-response,Lab,634873c263630e047ced3765,2022-10-13 16:23:30-04:00,single_300ms_ontime_delay_2_tone_Lab_5,4720,252,EXP8c_maintaskTrials_2_l_rv
pass,6345b7f49677d36bd07c5a10,EXP8c_JF,0,2ab1f3c00a463a452d042a457c55214abd7f82feac1b545f6dcc94d6affdb2c1,2462.88123,FALSE,keypress,EXP8c_testRsp_rv,1550,[],choice-response,Lap,634873c263630e047ced3765,2022-10-13 16:23:30-04:00,single_300ms_early_delay_2_tone_Lab_1,4865,253,EXP8c_maintaskTrials_2_s_rv
pass,6345b7f49677d36bd07c5a10,EXP8c_JF,0,2ab1f3c00a463a452d042a457c55214abd7f82feac1b545f6dcc94d6affdb2c1,2462.88123,FALSE,keypress,EXP8c_testRsp_rv,910,[],choice-response,Lab,634873c263630e047ced3765,2022-10-13 16:23:30-04:00,single_300ms_ontime_delay_2_tone_Lab_2,4409,254,EXP8c_maintaskTrials_2_s_rv
pass,6345b7f49677d36bd07c5a10,EXP8c_JF,0,2ab1f3c00a463a452d042a457c55214abd7f82feac1b545f6dcc94d6affdb2c1,2462.88123,FALSE,keypress,EXP8c_testRsp_rv,667,[],choice-response,Lab,634873c263630e047ced3765,2022-10-13 16:23:30-04:00,single_300ms_ontime_delay_2_tone_Lab_6,4314,255,EXP8c_maintaskTrials_2_l_rv
pass,6345b7f49677d36bd07c5a10,EXP8c_JF,0,2ab1f3c00a463a452d042a457c55214abd7f82feac1b545f6dcc94d6affdb2c1,2462.88123,FALSE,keypress,EXP8c_testRsp_rv,699,[],choice-response,Lap,634873c263630e047ced3765,2022-10-13 16:23:30-04:00,single_300ms_late_delay_2_tone_Lab_2,4230,256,EXP8c_maintaskTrials_2_s_rv
pass,6345b7f49677d36bd07c5a10,EXP8c_JF,0,2ab1f3c00a463a452d042a457c55214abd7f82feac1b545f6dcc94d6affdb2c1,2462.88123,FALSE,keypress,EXP8c_testRsp_rv,957,[],choice-response,Lap,634873c263630e047ced3765,2022-10-13 16:23:30-04:00,single_300ms_ontime_delay_2_tone_Lab_3,4494,257,EXP8c_maintaskTrials_2_s_rv
pass,6345b7f49677d36bd07c5a10,EXP8c_JF,0,2ab1f3c00a463a452d042a457c55214abd7f82feac1b545f6dcc94d6affdb2c1,2462.88123,FALSE,keypress,EXP8c_testRsp_rv,471,[],choice-response,Lap,634873c263630e047ced3765,2022-10-13 16:23:30-04:00,single_300ms_late_delay_2_tone_Lab_1,3951,258,EXP8c_maintaskTrials_2_s_rv
pass,6345b7f49677d36bd07c5a10,EXP8c_JF,0,2ab1f3c00a463a452d042a457c55214abd7f82feac1b545f6dcc94d6affdb2c1,2462.88123,FALSE,keypress,EXP8c_testRsp_rv,360,[],choice-response,Lab,634873c263630e047ced3765,2022-10-13 16:23:30-04:00,single_300ms_early_delay_2_tone_Lab_4,3755,259,EXP8c_maintaskTrials_2_s_rv
pass,6345b7f49677d36bd07c5a10,EXP8c_JF,0,2ab1f3c00a463a452d042a457c55214abd7f82feac1b545f6dcc94d6affdb2c1,2462.88123,FALSE,keypress,EXP8c_testRsp_rv,932,[],choice-response,Lab,634873c263630e047ced3765,2022-10-13 16:23:30-04:00,single_300ms_early_delay_2_tone_Lab_6,4378,260,EXP8c_maintaskTrials_2_l_rv
pass,6345b7f49677d36bd07c5a10,EXP8c_JF,0,2ab1f3c00a463a452d042a457c55214abd7f82feac1b545f6dcc94d6affdb2c1,2462.88123,FALSE,keypress,EXP8c_testRsp_rv,686,[],choice-response,Lab,634873c263630e047ced3765,2022-10-13 16:23:30-04:00,single_300ms_late_delay_2_tone_Lab_8,4378,261,EXP8c_maintaskTrials_2_l_rv
pass,6345b7f49677d36bd07c5a10,EXP8c_JF,0,2ab1f3c00a463a452d042a457c55214abd7f82feac1b545f6dcc94d6affdb2c1,2462.88123,FALSE,keypress,EXP8c_testRsp_rv,952,[],choice-response,Lab,634873c263630e047ced3765,2022-10-13 16:23:30-04:00,single_300ms_early_delay_2_tone_Lab_5,4324,262,EXP8c_maintaskTrials_2_l_rv
pass,6345b7f49677d36bd07c5a10,EXP8c_JF,0,2ab1f3c00a463a452d042a457c55214abd7f82feac1b545f6dcc94d6affdb2c1,2462.88123,FALSE,keypress,EXP8c_testRsp_rv,1488,[],choice-response,Lab,634873c263630e047ced3765,2022-10-13 16:23:30-04:00,single_300ms_early_delay_2_tone_Lab_3,4907,263,EXP8c_maintaskTrials_2_s_rv
pass,6345b7f49677d36bd07c5a10,EXP8c_JF,0,2ab1f3c00a463a452d042a457c55214abd7f82feac1b545f6dcc94d6affdb2c1,2462.88123,TRUE,keypress,bird_catchRsp,1968,['Bird singing'],choice-response,Bird singing,634873c263630e047ced3765,2022-10-13 16:23:30-04:00,songbird,5112,264,Catch_bird
pass,6345b7f49677d36bd07c5a10,EXP8c_JF,0,2ab1f3c00a463a452d042a457c55214abd7f82feac1b545f6dcc94d6affdb2c1,2462.88123,FALSE,keypress,EXP8c_testRsp_rv,1617,[],choice-response,Lab,634873c263630e047ced3765,2022-10-13 16:23:30-04:00,single_300ms_late_delay_2_tone_Lab_3,5144,265,EXP8c_maintaskTrials_2_s_rv
pass,6345b7f49677d36bd07c5a10,EXP8c_JF,0,2ab1f3c00a463a452d042a457c55214abd7f82feac1b545f6dcc94d6affdb2c1,2462.88123,FALSE,keypress,EXP8c_testRsp_rv,2967,[],choice-response,Lab,634873c263630e047ced3765,2022-10-13 16:23:30-04:00,single_300ms_early_delay_2_tone_Lab_7,6509,266,EXP8c_maintaskTrials_2_l_rv
pass,6345b7f49677d36bd07c5a10,EXP8c_JF,0,2ab1f3c00a463a452d042a457c55214abd7f82feac1b545f6dcc94d6affdb2c1,2462.88123,FALSE,keypress,EXP8c_testRsp_rv,600,[],choice-response,Lap,634873c263630e047ced3765,2022-10-13 16:23:30-04:00,single_300ms_ontime_delay_2_tone_Lab_1,4048,267,EXP8c_maintaskTrials_2_s_rv
pass,6345b7f49677d36bd07c5a10,EXP8c_JF,0,2ab1f3c00a463a452d042a457c55214abd7f82feac1b545f6dcc94d6affdb2c1,2462.88123,FALSE,keypress,EXP8c_testRsp_rv,1790,[],choice-response,Lab,634873c263630e047ced3765,2022-10-13 16:23:30-04:00,single_300ms_early_delay_2_tone_Lab_8,5295,268,EXP8c_maintaskTrials_2_l_rv
pass,6345b7f49677d36bd07c5a10,EXP8c_JF,0,2ab1f3c00a463a452d042a457c55214abd7f82feac1b545f6dcc94d6affdb2c1,2462.88123,FALSE,keypress,EXP8c_testRsp_rv,2176,[],choice-response,Lab,634873c263630e047ced3765,2022-10-13 16:23:30-04:00,single_300ms_ontime_delay_2_tone_Lab_4,5661,269,EXP8c_maintaskTrials_2_s_rv
pass,6345b7f49677d36bd07c5a10,EXP8c_JF,0,2ab1f3c00a463a452d042a457c55214abd7f82feac1b545f6dcc94d6affdb2c1,2462.88123,FALSE,keypress,EXP8c_testRsp_rv,1123,[],choice-response,Lab,634873c263630e047ced3765,2022-10-13 16:23:30-04:00,single_300ms_late_delay_2_tone_Lab_5,4703,270,EXP8c_maintaskTrials_2_l_rv
pass,6345b7f49677d36bd07c5a10,EXP8c_JF,0,2ab1f3c00a463a452d042a457c55214abd7f82feac1b545f6dcc94d6affdb2c1,2462.88123,FALSE,keypress,EXP8c_testRsp_rv,882,[],choice-response,Lab,634873c263630e047ced3765,2022-10-13 16:23:30-04:00,single_300ms_late_delay_2_tone_Lab_7,4483,271,EXP8c_maintaskTrials_2_l_rv
pass,6345b7f49677d36bd07c5a10,EXP8c_JF,0,2ab1f3c00a463a452d042a457c55214abd7f82feac1b545f6dcc94d6affdb2c1,2462.88123,FALSE,keypress,EXP8c_testRsp_rv,337,[],choice-response,Lap,634873c263630e047ced3765,2022-10-13 16:23:30-04:00,single_300ms_early_delay_2_tone_Lab_2,3665,272,EXP8c_maintaskTrials_2_s_rv
pass,6345b7f49677d36bd07c5a10,EXP8c_JF,0,2ab1f3c00a463a452d042a457c55214abd7f82feac1b545f6dcc94d6affdb2c1,2462.88123,FALSE,keypress,EXP8c_testRsp_rv,641,[],choice-response,Lab,634873c263630e047ced3765,2022-10-13 16:23:30-04:00,single_300ms_ontime_delay_2_tone_Lab_7,4185,273,EXP8c_maintaskTrials_2_l_rv
pass,6345b7f49677d36bd07c5a10,EXP8c_JF,0,2ab1f3c00a463a452d042a457c55214abd7f82feac1b545f6dcc94d6affdb2c1,2462.88123,FALSE,keypress,EXP8c_testRsp_rv,438,[],choice-response,Lab,634873c263630e047ced3765,2022-10-13 16:23:30-04:00,single_300ms_ontime_delay_2_tone_Lab_8,4184,274,EXP8c_maintaskTrials_2_l_rv
pass,6345b7f49677d36bd07c5a10,EXP8c_JF,0,2ab1f3c00a463a452d042a457c55214abd7f82feac1b545f6dcc94d6affdb2c1,2462.88123,FALSE,keypress,EXP8c_testRsp_rv,2336,[],choice-response,Lab,634873c263630e047ced3765,2022-10-13 16:23:30-04:00,single_300ms_late_delay_2_tone_Lab_4,5978,275,EXP8c_maintaskTrials_2_s_rv
pass,6345b7f49677d36bd07c5a10,EXP8c_JF,0,2ab1f3c00a463a452d042a457c55214abd7f82feac1b545f6dcc94d6affdb2c1,2462.88123,TRUE,keypress,bird_catchRsp,470,['Bird singing'],choice-response,Bird singing,634873c263630e047ced3765,2022-10-13 16:23:30-04:00,songbird,3558,276,Catch_bird
pass,6345b7f49677d36bd07c5a10,EXP8c_JF,0,2ab1f3c00a463a452d042a457c55214abd7f82feac1b545f6dcc94d6affdb2c1,2462.88123,FALSE,keypress,EXP8c_testRsp_rv,840,[],choice-response,Lab,634873c263630e047ced3765,2022-10-13 16:23:30-04:00,single_300ms_late_delay_2_tone_Lab_6,4428,277,EXP8c_maintaskTrials_2_l_rv
pass,6345b7f49677d36bd07c5a10,EXP8c_JF,0,2ab1f3c00a463a452d042a457c55214abd7f82feac1b545f6dcc94d6affdb2c1,2462.88123,FALSE,keypress,EXP8c_testRsp_rv,760,[],choice-response,Lab,634873c263630e047ced3765,2022-10-13 16:23:30-04:00,single_300ms_ontime_delay_2_tone_Lab_5,4266,278,EXP8c_maintaskTrials_2_l_rv
pass,6345b7f49677d36bd07c5a10,EXP8c_JF,0,2ab1f3c00a463a452d042a457c55214abd7f82feac1b545f6dcc94d6affdb2c1,2462.88123,FALSE,keypress,EXP8c_testRsp_rv,532,[],choice-response,Lab,634873c263630e047ced3765,2022-10-13 16:23:30-04:00,single_300ms_late_delay_2_tone_Lab_7,4236,279,EXP8c_maintaskTrials_2_l_rv
pass,6345b7f49677d36bd07c5a10,EXP8c_JF,0,2ab1f3c00a463a452d042a457c55214abd7f82feac1b545f6dcc94d6affdb2c1,2462.88123,FALSE,keypress,EXP8c_testRsp_rv,1964,[],choice-response,Lap,634873c263630e047ced3765,2022-10-13 16:23:30-04:00,single_300ms_early_delay_2_tone_Lab_4,5388,280,EXP8c_maintaskTrials_2_s_rv
pass,6345b7f49677d36bd07c5a10,EXP8c_JF,0,2ab1f3c00a463a452d042a457c55214abd7f82feac1b545f6dcc94d6affdb2c1,2462.88123,FALSE,keypress,EXP8c_testRsp_rv,350,[],choice-response,Lab,634873c263630e047ced3765,2022-10-13 16:23:30-04:00,single_300ms_early_delay_2_tone_Lab_7,3951,281,EXP8c_maintaskTrials_2_l_rv
pass,6345b7f49677d36bd07c5a10,EXP8c_JF,0,2ab1f3c00a463a452d042a457c55214abd7f82feac1b545f6dcc94d6affdb2c1,2462.88123,FALSE,keypress,EXP8c_testRsp_rv,489,[],choice-response,Lap,634873c263630e047ced3765,2022-10-13 16:23:30-04:00,single_300ms_early_delay_2_tone_Lab_1,3815,282,EXP8c_maintaskTrials_2_s_rv
pass,6345b7f49677d36bd07c5a10,EXP8c_JF,0,2ab1f3c00a463a452d042a457c55214abd7f82feac1b545f6dcc94d6affdb2c1,2462.88123,FALSE,keypress,EXP8c_testRsp_rv,707,[],choice-response,Lap,634873c263630e047ced3765,2022-10-13 16:23:30-04:00,single_300ms_late_delay_2_tone_Lab_2,4215,283,EXP8c_maintaskTrials_2_s_rv
pass,6345b7f49677d36bd07c5a10,EXP8c_JF,0,2ab1f3c00a463a452d042a457c55214abd7f82feac1b545f6dcc94d6affdb2c1,2462.88123,FALSE,keypress,EXP8c_testRsp_rv,5153,[],choice-response,Lap,634873c263630e047ced3765,2022-10-13 16:23:30-04:00,single_300ms_ontime_delay_2_tone_Lab_2,8632,284,EXP8c_maintaskTrials_2_s_rv
pass,6345b7f49677d36bd07c5a10,EXP8c_JF,0,2ab1f3c00a463a452d042a457c55214abd7f82feac1b545f6dcc94d6affdb2c1,2462.88123,FALSE,keypress,EXP8c_testRsp_rv,1201,[],choice-response,Lab,634873c263630e047ced3765,2022-10-13 16:23:30-04:00,single_300ms_early_delay_2_tone_Lab_5,4765,285,EXP8c_maintaskTrials_2_l_rv
pass,6345b7f49677d36bd07c5a10,EXP8c_JF,0,2ab1f3c00a463a452d042a457c55214abd7f82feac1b545f6dcc94d6affdb2c1,2462.88123,FALSE,keypress,EXP8c_testRsp_rv,726,[],choice-response,Lap,634873c263630e047ced3765,2022-10-13 16:23:30-04:00,single_300ms_early_delay_2_tone_Lab_2,4037,286,EXP8c_maintaskTrials_2_s_rv
pass,6345b7f49677d36bd07c5a10,EXP8c_JF,0,2ab1f3c00a463a452d042a457c55214abd7f82feac1b545f6dcc94d6affdb2c1,2462.88123,FALSE,keypress,EXP8c_testRsp_rv,1402,[],choice-response,Lab,634873c263630e047ced3765,2022-10-13 16:23:30-04:00,single_300ms_early_delay_2_tone_Lab_6,4835,287,EXP8c_maintaskTrials_2_l_rv
pass,6345b7f49677d36bd07c5a10,EXP8c_JF,0,2ab1f3c00a463a452d042a457c55214abd7f82feac1b545f6dcc94d6affdb2c1,2462.88123,TRUE,keypress,bird_catchRsp,372,['Bird singing'],choice-response,Bird singing,634873c263630e047ced3765,2022-10-13 16:23:30-04:00,songbird,3497,288,Catch_bird
pass,6345b7f49677d36bd07c5a10,EXP8c_JF,0,2ab1f3c00a463a452d042a457c55214abd7f82feac1b545f6dcc94d6affdb2c1,2462.88123,FALSE,keypress,EXP8c_testRsp_rv,623,[],choice-response,Lab,634873c263630e047ced3765,2022-10-13 16:23:30-04:00,single_300ms_ontime_delay_2_tone_Lab_8,4242,289,EXP8c_maintaskTrials_2_l_rv
pass,6345b7f49677d36bd07c5a10,EXP8c_JF,0,2ab1f3c00a463a452d042a457c55214abd7f82feac1b545f6dcc94d6affdb2c1,2462.88123,FALSE,keypress,EXP8c_testRsp_rv,1025,[],choice-response,Lab,634873c263630e047ced3765,2022-10-13 16:23:30-04:00,single_300ms_ontime_delay_2_tone_Lab_5,4532,290,EXP8c_maintaskTrials_2_l_rv
pass,6345b7f49677d36bd07c5a10,EXP8c_JF,0,2ab1f3c00a463a452d042a457c55214abd7f82feac1b545f6dcc94d6affdb2c1,2462.88123,FALSE,keypress,EXP8c_testRsp_rv,2296,[],choice-response,Lap,634873c263630e047ced3765,2022-10-13 16:23:30-04:00,single_300ms_ontime_delay_2_tone_Lab_4,5816,291,EXP8c_maintaskTrials_2_s_rv
pass,6345b7f49677d36bd07c5a10,EXP8c_JF,0,2ab1f3c00a463a452d042a457c55214abd7f82feac1b545f6dcc94d6affdb2c1,2462.88123,FALSE,keypress,EXP8c_testRsp_rv,322,[],choice-response,Lab,634873c263630e047ced3765,2022-10-13 16:23:30-04:00,single_300ms_late_delay_2_tone_Lab_6,4008,292,EXP8c_maintaskTrials_2_l_rv
pass,6345b7f49677d36bd07c5a10,EXP8c_JF,0,2ab1f3c00a463a452d042a457c55214abd7f82feac1b545f6dcc94d6affdb2c1,2462.88123,FALSE,keypress,EXP8c_testRsp_rv,652,[],choice-response,Lab,634873c263630e047ced3765,2022-10-13 16:23:30-04:00,single_300ms_ontime_delay_2_tone_Lab_7,4281,293,EXP8c_maintaskTrials_2_l_rv
pass,6345b7f49677d36bd07c5a10,EXP8c_JF,0,2ab1f3c00a463a452d042a457c55214abd7f82feac1b545f6dcc94d6affdb2c1,2462.88123,FALSE,keypress,EXP8c_testRsp_rv,1500,[],choice-response,Lab,634873c263630e047ced3765,2022-10-13 16:23:30-04:00,single_300ms_early_delay_2_tone_Lab_3,4842,294,EXP8c_maintaskTrials_2_s_rv
pass,6345b7f49677d36bd07c5a10,EXP8c_JF,0,2ab1f3c00a463a452d042a457c55214abd7f82feac1b545f6dcc94d6affdb2c1,2462.88123,FALSE,keypress,EXP8c_testRsp_rv,432,[],choice-response,Lap,634873c263630e047ced3765,2022-10-13 16:23:30-04:00,single_300ms_late_delay_2_tone_Lab_1,4046,295,EXP8c_maintaskTrials_2_s_rv
pass,6345b7f49677d36bd07c5a10,EXP8c_JF,0,2ab1f3c00a463a452d042a457c55214abd7f82feac1b545f6dcc94d6affdb2c1,2462.88123,FALSE,keypress,EXP8c_testRsp_rv,642,[],choice-response,Lap,634873c263630e047ced3765,2022-10-13 16:23:30-04:00,single_300ms_ontime_delay_2_tone_Lab_3,4073,296,EXP8c_maintaskTrials_2_s_rv
pass,6345b7f49677d36bd07c5a10,EXP8c_JF,0,2ab1f3c00a463a452d042a457c55214abd7f82feac1b545f6dcc94d6affdb2c1,2462.88123,FALSE,keypress,EXP8c_testRsp_rv,299,[],choice-response,Lab,634873c263630e047ced3765,2022-10-13 16:23:30-04:00,single_300ms_ontime_delay_2_tone_Lab_6,3828,297,EXP8c_maintaskTrials_2_l_rv
pass,6345b7f49677d36bd07c5a10,EXP8c_JF,0,2ab1f3c00a463a452d042a457c55214abd7f82feac1b545f6dcc94d6affdb2c1,2462.88123,FALSE,keypress,EXP8c_testRsp_rv,611,[],choice-response,Lab,634873c263630e047ced3765,2022-10-13 16:23:30-04:00,single_300ms_early_delay_2_tone_Lab_8,4134,298,EXP8c_maintaskTrials_2_l_rv
pass,6345b7f49677d36bd07c5a10,EXP8c_JF,0,2ab1f3c00a463a452d042a457c55214abd7f82feac1b545f6dcc94d6affdb2c1,2462.88123,FALSE,keypress,EXP8c_testRsp_rv,1191,[],choice-response,Lap,634873c263630e047ced3765,2022-10-13 16:23:30-04:00,single_300ms_late_delay_2_tone_Lab_4,4938,299,EXP8c_maintaskTrials_2_s_rv
pass,6345b7f49677d36bd07c5a10,EXP8c_JF,0,2ab1f3c00a463a452d042a457c55214abd7f82feac1b545f6dcc94d6affdb2c1,2462.88123,TRUE,keypress,bird_catchRsp,829,['Bird singing'],choice-response,Bird singing,634873c263630e047ced3765,2022-10-13 16:23:30-04:00,songbird,3904,300,Catch_bird
pass,6345b7f49677d36bd07c5a10,EXP8c_JF,0,2ab1f3c00a463a452d042a457c55214abd7f82feac1b545f6dcc94d6affdb2c1,2462.88123,FALSE,keypress,EXP8c_testRsp_rv,343,[],choice-response,Lab,634873c263630e047ced3765,2022-10-13 16:23:30-04:00,single_300ms_late_delay_2_tone_Lab_8,3971,301,EXP8c_maintaskTrials_2_l_rv
pass,6345b7f49677d36bd07c5a10,EXP8c_JF,0,2ab1f3c00a463a452d042a457c55214abd7f82feac1b545f6dcc94d6affdb2c1,2462.88123,FALSE,keypress,EXP8c_testRsp_rv,502,[],choice-response,Lap,634873c263630e047ced3765,2022-10-13 16:23:30-04:00,single_300ms_ontime_delay_2_tone_Lab_1,3994,302,EXP8c_maintaskTrials_2_s_rv
pass,6345b7f49677d36bd07c5a10,EXP8c_JF,0,2ab1f3c00a463a452d042a457c55214abd7f82feac1b545f6dcc94d6affdb2c1,2462.88123,FALSE,keypress,EXP8c_testRsp_rv,1138,[],choice-response,Lab,634873c263630e047ced3765,2022-10-13 16:23:30-04:00,single_300ms_late_delay_2_tone_Lab_5,4697,303,EXP8c_maintaskTrials_2_l_rv
pass,6345b7f49677d36bd07c5a10,EXP8c_JF,0,2ab1f3c00a463a452d042a457c55214abd7f82feac1b545f6dcc94d6affdb2c1,2462.88123,FALSE,keypress,EXP8c_testRsp_rv,2114,[],choice-response,Lab,634873c263630e047ced3765,2022-10-13 16:23:30-04:00,single_300ms_late_delay_2_tone_Lab_3,5762,304,EXP8c_maintaskTrials_2_s_rv
pass,6345b7f49677d36bd07c5a10,EXP8c_JF,0,2ab1f3c00a463a452d042a457c55214abd7f82feac1b545f6dcc94d6affdb2c1,2462.88123,FALSE,keypress,EXP8c_testRsp_rv,623,[],choice-response,Lab,634873c263630e047ced3765,2022-10-13 16:23:30-04:00,single_300ms_ontime_delay_2_tone_Lab_5,4159,305,EXP8c_maintaskTrials_2_l_rv
pass,6345b7f49677d36bd07c5a10,EXP8c_JF,0,2ab1f3c00a463a452d042a457c55214abd7f82feac1b545f6dcc94d6affdb2c1,2462.88123,FALSE,keypress,EXP8c_testRsp_rv,1486,[],choice-response,Lab,634873c263630e047ced3765,2022-10-13 16:23:30-04:00,single_300ms_early_delay_2_tone_Lab_4,4943,306,EXP8c_maintaskTrials_2_s_rv
pass,6345b7f49677d36bd07c5a10,EXP8c_JF,0,2ab1f3c00a463a452d042a457c55214abd7f82feac1b545f6dcc94d6affdb2c1,2462.88123,FALSE,keypress,EXP8c_testRsp_rv,425,[],choice-response,Lap,634873c263630e047ced3765,2022-10-13 16:23:30-04:00,single_300ms_ontime_delay_2_tone_Lab_1,3869,307,EXP8c_maintaskTrials_2_s_rv
pass,6345b7f49677d36bd07c5a10,EXP8c_JF,0,2ab1f3c00a463a452d042a457c55214abd7f82feac1b545f6dcc94d6affdb2c1,2462.88123,FALSE,keypress,EXP8c_testRsp_rv,423,[],choice-response,Lap,634873c263630e047ced3765,2022-10-13 16:23:30-04:00,single_300ms_early_delay_2_tone_Lab_1,3734,308,EXP8c_maintaskTrials_2_s_rv
pass,6345b7f49677d36bd07c5a10,EXP8c_JF,0,2ab1f3c00a463a452d042a457c55214abd7f82feac1b545f6dcc94d6affdb2c1,2462.88123,FALSE,keypress,EXP8c_testRsp_rv,3248,[],choice-response,Lap,634873c263630e047ced3765,2022-10-13 16:23:30-04:00,single_300ms_early_delay_2_tone_Lab_3,6620,309,EXP8c_maintaskTrials_2_s_rv
pass,6345b7f49677d36bd07c5a10,EXP8c_JF,0,2ab1f3c00a463a452d042a457c55214abd7f82feac1b545f6dcc94d6affdb2c1,2462.88123,FALSE,keypress,EXP8c_testRsp_rv,441,[],choice-response,Lap,634873c263630e047ced3765,2022-10-13 16:23:30-04:00,single_300ms_late_delay_2_tone_Lab_1,3944,310,EXP8c_maintaskTrials_2_s_rv
pass,6345b7f49677d36bd07c5a10,EXP8c_JF,0,2ab1f3c00a463a452d042a457c55214abd7f82feac1b545f6dcc94d6affdb2c1,2462.88123,FALSE,keypress,EXP8c_testRsp_rv,291,[],choice-response,Lab,634873c263630e047ced3765,2022-10-13 16:23:30-04:00,single_300ms_early_delay_2_tone_Lab_6,3790,311,EXP8c_maintaskTrials_2_l_rv
pass,6345b7f49677d36bd07c5a10,EXP8c_JF,0,2ab1f3c00a463a452d042a457c55214abd7f82feac1b545f6dcc94d6affdb2c1,2462.88123,TRUE,keypress,bird_catchRsp,1952,['Bird singing'],choice-response,Bird singing,634873c263630e047ced3765,2022-10-13 16:23:30-04:00,songbird,5004,312,Catch_bird
pass,6345b7f49677d36bd07c5a10,EXP8c_JF,0,2ab1f3c00a463a452d042a457c55214abd7f82feac1b545f6dcc94d6affdb2c1,2462.88123,FALSE,keypress,EXP8c_testRsp_rv,554,[],choice-response,Lab,634873c263630e047ced3765,2022-10-13 16:23:30-04:00,single_300ms_early_delay_2_tone_Lab_7,4060,313,EXP8c_maintaskTrials_2_l_rv
pass,6345b7f49677d36bd07c5a10,EXP8c_JF,0,2ab1f3c00a463a452d042a457c55214abd7f82feac1b545f6dcc94d6affdb2c1,2462.88123,FALSE,keypress,EXP8c_testRsp_rv,305,[],choice-response,Lab,634873c263630e047ced3765,2022-10-13 16:23:30-04:00,single_300ms_ontime_delay_2_tone_Lab_6,3902,314,EXP8c_maintaskTrials_2_l_rv
pass,6345b7f49677d36bd07c5a10,EXP8c_JF,0,2ab1f3c00a463a452d042a457c55214abd7f82feac1b545f6dcc94d6affdb2c1,2462.88123,FALSE,keypress,EXP8c_testRsp_rv,288,[],choice-response,Lab,634873c263630e047ced3765,2022-10-13 16:23:30-04:00,single_300ms_ontime_delay_2_tone_Lab_8,3825,315,EXP8c_maintaskTrials_2_l_rv
pass,6345b7f49677d36bd07c5a10,EXP8c_JF,0,2ab1f3c00a463a452d042a457c55214abd7f82feac1b545f6dcc94d6affdb2c1,2462.88123,FALSE,keypress,EXP8c_testRsp_rv,491,[],choice-response,Lab,634873c263630e047ced3765,2022-10-13 16:23:30-04:00,single_300ms_late_delay_2_tone_Lab_6,4157,316,EXP8c_maintaskTrials_2_l_rv
pass,6345b7f49677d36bd07c5a10,EXP8c_JF,0,2ab1f3c00a463a452d042a457c55214abd7f82feac1b545f6dcc94d6affdb2c1,2462.88123,FALSE,keypress,EXP8c_testRsp_rv,996,[],choice-response,Lap,634873c263630e047ced3765,2022-10-13 16:23:30-04:00,single_300ms_late_delay_2_tone_Lab_3,4565,317,EXP8c_maintaskTrials_2_s_rv
pass,6345b7f49677d36bd07c5a10,EXP8c_JF,0,2ab1f3c00a463a452d042a457c55214abd7f82feac1b545f6dcc94d6affdb2c1,2462.88123,FALSE,keypress,EXP8c_testRsp_rv,489,[],choice-response,Lab,634873c263630e047ced3765,2022-10-13 16:23:30-04:00,single_300ms_early_delay_2_tone_Lab_5,3917,318,EXP8c_maintaskTrials_2_l_rv
pass,6345b7f49677d36bd07c5a10,EXP8c_JF,0,2ab1f3c00a463a452d042a457c55214abd7f82feac1b545f6dcc94d6affdb2c1,2462.88123,FALSE,keypress,EXP8c_testRsp_rv,410,[],choice-response,Lap,634873c263630e047ced3765,2022-10-13 16:23:30-04:00,single_300ms_early_delay_2_tone_Lab_2,3730,319,EXP8c_maintaskTrials_2_s_rv
pass,6345b7f49677d36bd07c5a10,EXP8c_JF,0,2ab1f3c00a463a452d042a457c55214abd7f82feac1b545f6dcc94d6affdb2c1,2462.88123,FALSE,keypress,EXP8c_testRsp_rv,1282,[],choice-response,Lab,634873c263630e047ced3765,2022-10-13 16:23:30-04:00,single_300ms_ontime_delay_2_tone_Lab_7,4854,320,EXP8c_maintaskTrials_2_l_rv
pass,6345b7f49677d36bd07c5a10,EXP8c_JF,0,2ab1f3c00a463a452d042a457c55214abd7f82feac1b545f6dcc94d6affdb2c1,2462.88123,FALSE,keypress,EXP8c_testRsp_rv,603,[],choice-response,Lab,634873c263630e047ced3765,2022-10-13 16:23:30-04:00,single_300ms_ontime_delay_2_tone_Lab_4,4102,321,EXP8c_maintaskTrials_2_s_rv
pass,6345b7f49677d36bd07c5a10,EXP8c_JF,0,2ab1f3c00a463a452d042a457c55214abd7f82feac1b545f6dcc94d6affdb2c1,2462.88123,FALSE,keypress,EXP8c_testRsp_rv,4710,[],choice-response,Lab,634873c263630e047ced3765,2022-10-13 16:23:30-04:00,single_300ms_ontime_delay_2_tone_Lab_3,8176,322,EXP8c_maintaskTrials_2_s_rv
pass,6345b7f49677d36bd07c5a10,EXP8c_JF,0,2ab1f3c00a463a452d042a457c55214abd7f82feac1b545f6dcc94d6affdb2c1,2462.88123,FALSE,keypress,EXP8c_testRsp_rv,892,[],choice-response,Lap,634873c263630e047ced3765,2022-10-13 16:23:30-04:00,single_300ms_ontime_delay_2_tone_Lab_2,4374,323,EXP8c_maintaskTrials_2_s_rv
pass,6345b7f49677d36bd07c5a10,EXP8c_JF,0,2ab1f3c00a463a452d042a457c55214abd7f82feac1b545f6dcc94d6affdb2c1,2462.88123,TRUE,keypress,bird_catchRsp,361,['Bird singing'],choice-response,Bird singing,634873c263630e047ced3765,2022-10-13 16:23:30-04:00,songbird,3418,324,Catch_bird
pass,6345b7f49677d36bd07c5a10,EXP8c_JF,0,2ab1f3c00a463a452d042a457c55214abd7f82feac1b545f6dcc94d6affdb2c1,2462.88123,FALSE,keypress,EXP8c_testRsp_rv,756,[],choice-response,Lab,634873c263630e047ced3765,2022-10-13 16:23:30-04:00,single_300ms_early_delay_2_tone_Lab_8,4324,325,EXP8c_maintaskTrials_2_l_rv
pass,6345b7f49677d36bd07c5a10,EXP8c_JF,0,2ab1f3c00a463a452d042a457c55214abd7f82feac1b545f6dcc94d6affdb2c1,2462.88123,FALSE,keypress,EXP8c_testRsp_rv,961,[],choice-response,Lab,634873c263630e047ced3765,2022-10-13 16:23:30-04:00,single_300ms_late_delay_2_tone_Lab_2,4565,326,EXP8c_maintaskTrials_2_s_rv
pass,6345b7f49677d36bd07c5a10,EXP8c_JF,0,2ab1f3c00a463a452d042a457c55214abd7f82feac1b545f6dcc94d6affdb2c1,2462.88123,FALSE,keypress,EXP8c_testRsp_rv,546,[],choice-response,Lab,634873c263630e047ced3765,2022-10-13 16:23:30-04:00,single_300ms_late_delay_2_tone_Lab_5,4147,327,EXP8c_maintaskTrials_2_l_rv
pass,6345b7f49677d36bd07c5a10,EXP8c_JF,0,2ab1f3c00a463a452d042a457c55214abd7f82feac1b545f6dcc94d6affdb2c1,2462.88123,FALSE,keypress,EXP8c_testRsp_rv,534,[],choice-response,Lab,634873c263630e047ced3765,2022-10-13 16:23:30-04:00,single_300ms_late_delay_2_tone_Lab_7,4161,328,EXP8c_maintaskTrials_2_l_rv
pass,6345b7f49677d36bd07c5a10,EXP8c_JF,0,2ab1f3c00a463a452d042a457c55214abd7f82feac1b545f6dcc94d6affdb2c1,2462.88123,FALSE,keypress,EXP8c_testRsp_rv,1355,[],choice-response,Lap,634873c263630e047ced3765,2022-10-13 16:23:30-04:00,single_300ms_late_delay_2_tone_Lab_4,4997,329,EXP8c_maintaskTrials_2_s_rv
pass,6345b7f49677d36bd07c5a10,EXP8c_JF,0,2ab1f3c00a463a452d042a457c55214abd7f82feac1b545f6dcc94d6affdb2c1,2462.88123,FALSE,keypress,EXP8c_testRsp_rv,783,[],choice-response,Lab,634873c263630e047ced3765,2022-10-13 16:23:30-04:00,single_300ms_late_delay_2_tone_Lab_8,4514,330,EXP8c_maintaskTrials_2_l_rv
pass,6345b7f49677d36bd07c5a10,EXP8c_JF,0,2ab1f3c00a463a452d042a457c55214abd7f82feac1b545f6dcc94d6affdb2c1,2462.88123,FALSE,keypress,EXP8c_testRsp_rv,708,[],choice-response,Lap,634873c263630e047ced3765,2022-10-13 16:23:30-04:00,single_300ms_early_delay_2_tone_Lab_5,4098,331,EXP8c_maintaskTrials_2_l_rv
pass,6345b7f49677d36bd07c5a10,EXP8c_JF,0,2ab1f3c00a463a452d042a457c55214abd7f82feac1b545f6dcc94d6affdb2c1,2462.88123,FALSE,keypress,EXP8c_testRsp_rv,629,[],choice-response,Lab,634873c263630e047ced3765,2022-10-13 16:23:30-04:00,single_300ms_late_delay_2_tone_Lab_5,4271,332,EXP8c_maintaskTrials_2_l_rv
pass,6345b7f49677d36bd07c5a10,EXP8c_JF,0,2ab1f3c00a463a452d042a457c55214abd7f82feac1b545f6dcc94d6affdb2c1,2462.88123,FALSE,keypress,EXP8c_testRsp_rv,855,[],choice-response,Lab,634873c263630e047ced3765,2022-10-13 16:23:30-04:00,single_300ms_late_delay_2_tone_Lab_6,4541,333,EXP8c_maintaskTrials_2_l_rv
pass,6345b7f49677d36bd07c5a10,EXP8c_JF,0,2ab1f3c00a463a452d042a457c55214abd7f82feac1b545f6dcc94d6affdb2c1,2462.88123,FALSE,keypress,EXP8c_testRsp_rv,564,[],choice-response,Lab,634873c263630e047ced3765,2022-10-13 16:23:30-04:00,single_300ms_early_delay_2_tone_Lab_8,4065,334,EXP8c_maintaskTrials_2_l_rv
pass,6345b7f49677d36bd07c5a10,EXP8c_JF,0,2ab1f3c00a463a452d042a457c55214abd7f82feac1b545f6dcc94d6affdb2c1,2462.88123,FALSE,keypress,EXP8c_testRsp_rv,702,[],choice-response,Lab,634873c263630e047ced3765,2022-10-13 16:23:30-04:00,single_300ms_early_delay_2_tone_Lab_7,4142,335,EXP8c_maintaskTrials_2_l_rv
pass,6345b7f49677d36bd07c5a10,EXP8c_JF,0,2ab1f3c00a463a452d042a457c55214abd7f82feac1b545f6dcc94d6affdb2c1,2462.88123,TRUE,keypress,bird_catchRsp,586,['Bird singing'],choice-response,Bird singing,634873c263630e047ced3765,2022-10-13 16:23:30-04:00,songbird,3659,336,Catch_bird
