branch_failpass,expt_id,group_id,network_error_repeat,participant_id,participation_duration,response_correct,response_mode,response_name,response_rt,response_target,response_type,response_value,session_id,session_start_time,stimuli_presented,trial_duration,trial_num,trial_template
pass,6345b7f49677d36bd07c5a10,EXP8c_FJ,0,2ab1f3c00a463a452d042a457c55214abd7f82feac1b545f6dcc94d6affdb2c1,2407.6178839206696,False,click,survey_noise,2620,[],choice-response,1,6347bd0363630e047ced3758,2022-10-13 03:23:47-04:00,logistics_noise,3859,1,logisticsQuestionnaire
pass,6345b7f49677d36bd07c5a10,EXP8c_FJ,0,2ab1f3c00a463a452d042a457c55214abd7f82feac1b545f6dcc94d6affdb2c1,2407.6178839206696,False,click,survey_headphone1,998,[],choice-response,Yes,6347bd0363630e047ced3758,2022-10-13 03:23:47-04:00,logistic_headphone1,2742,2,logisticsQuestionnaire
pass,6345b7f49677d36bd07c5a10,EXP8c_FJ,0,2ab1f3c00a463a452d042a457c55214abd7f82feac1b545f6dcc94d6affdb2c1,2407.6178839206696,False,click,survey_headphone2,1068,[],choice-response,Wired Earbuds,6347bd0363630e047ced3758,2022-10-13 03:23:47-04:00,logistic_headphone2,2032,3,logisticsQuestionnaire
pass,6345b7f49677d36bd07c5a10,EXP8c_FJ,0,2ab1f3c00a463a452d042a457c55214abd7f82feac1b545f6dcc94d6affdb2c1,2407.6178839206696,True,keypress,EXP8c_exampleRsp_l_J,2816,['Lab'],choice-response,Lab,6347bd0363630e047ced3758,2022-10-13 03:23:47-04:00,long_tone_8,6744,4,EXP8c_Pretestexample_l
pass,6345b7f49677d36bd07c5a10,EXP8c_FJ,0,2ab1f3c00a463a452d042a457c55214abd7f82feac1b545f6dcc94d6affdb2c1,2407.6178839206696,True,keypress,EXP8c_exampleRsp_s_F,620,['Lap'],choice-response,Lap,6347bd0363630e047ced3758,2022-10-13 03:23:47-04:00,short_tone_1,4345,5,EXP8c_Pretestexample_s
pass,6345b7f49677d36bd07c5a10,EXP8c_FJ,0,2ab1f3c00a463a452d042a457c55214abd7f82feac1b545f6dcc94d6affdb2c1,2407.6178839206696,False,keypress,EXP8c_exampleRsp_l_J,315,['Lab'],choice-response,Lap,6347bd0363630e047ced3758,2022-10-13 03:23:47-04:00,long_tone_8,5263,6,EXP8c_Pretestexample_l
pass,6345b7f49677d36bd07c5a10,EXP8c_FJ,0,2ab1f3c00a463a452d042a457c55214abd7f82feac1b545f6dcc94d6affdb2c1,2407.6178839206696,True,keypress,EXP8c_exampleRsp_s_F,610,['Lap'],choice-response,Lap,6347bd0363630e047ced3758,2022-10-13 03:23:47-04:00,short_tone_1,4329,7,EXP8c_Pretestexample_s
pass,6345b7f49677d36bd07c5a10,EXP8c_FJ,0,2ab1f3c00a463a452d042a457c55214abd7f82feac1b545f6dcc94d6affdb2c1,2407.6178839206696,False,keypress,EXP8c_testRsp,1445,[],choice-response,Lab,6347bd0363630e047ced3758,2022-10-13 03:23:47-04:00,long_tone_8,2715,8,EXP8c_PretestTrials_l
pass,6345b7f49677d36bd07c5a10,EXP8c_FJ,0,2ab1f3c00a463a452d042a457c55214abd7f82feac1b545f6dcc94d6affdb2c1,2407.6178839206696,False,keypress,EXP8c_testRsp,283,[],choice-response,Lap,6347bd0363630e047ced3758,2022-10-13 03:23:47-04:00,short_tone_1,1385,9,EXP8c_PretestTrials_s
pass,6345b7f49677d36bd07c5a10,EXP8c_FJ,0,2ab1f3c00a463a452d042a457c55214abd7f82feac1b545f6dcc94d6affdb2c1,2407.6178839206696,False,keypress,EXP8c_testRsp,339,[],choice-response,Lab,6347bd0363630e047ced3758,2022-10-13 03:23:47-04:00,long_tone_8,1627,10,EXP8c_PretestTrials_l
pass,6345b7f49677d36bd07c5a10,EXP8c_FJ,0,2ab1f3c00a463a452d042a457c55214abd7f82feac1b545f6dcc94d6affdb2c1,2407.6178839206696,False,keypress,EXP8c_testRsp,227,[],choice-response,Lap,6347bd0363630e047ced3758,2022-10-13 03:23:47-04:00,short_tone_1,1347,11,EXP8c_PretestTrials_s
pass,6345b7f49677d36bd07c5a10,EXP8c_FJ,0,2ab1f3c00a463a452d042a457c55214abd7f82feac1b545f6dcc94d6affdb2c1,2407.6178839206696,False,keypress,EXP8c_testRsp,528,[],choice-response,Lab,6347bd0363630e047ced3758,2022-10-13 03:23:47-04:00,long_tone_8,1824,12,EXP8c_PretestTrials_l
pass,6345b7f49677d36bd07c5a10,EXP8c_FJ,0,2ab1f3c00a463a452d042a457c55214abd7f82feac1b545f6dcc94d6affdb2c1,2407.6178839206696,False,keypress,EXP8c_testRsp,150,[],choice-response,Lap,6347bd0363630e047ced3758,2022-10-13 03:23:47-04:00,short_tone_1,1259,13,EXP8c_PretestTrials_s
pass,6345b7f49677d36bd07c5a10,EXP8c_FJ,0,2ab1f3c00a463a452d042a457c55214abd7f82feac1b545f6dcc94d6affdb2c1,2407.6178839206696,False,keypress,EXP8c_testRsp,303,[],choice-response,Lab,6347bd0363630e047ced3758,2022-10-13 03:23:47-04:00,long_tone_8,1583,14,EXP8c_PretestTrials_l
pass,6345b7f49677d36bd07c5a10,EXP8c_FJ,0,2ab1f3c00a463a452d042a457c55214abd7f82feac1b545f6dcc94d6affdb2c1,2407.6178839206696,False,keypress,EXP8c_testRsp,126,[],choice-response,Lap,6347bd0363630e047ced3758,2022-10-13 03:23:47-04:00,short_tone_1,1226,15,EXP8c_PretestTrials_s
pass,6345b7f49677d36bd07c5a10,EXP8c_FJ,0,2ab1f3c00a463a452d042a457c55214abd7f82feac1b545f6dcc94d6affdb2c1,2407.6178839206696,False,keypress,EXP8c_testRsp,324,[],choice-response,Lab,6347bd0363630e047ced3758,2022-10-13 03:23:47-04:00,long_tone_8,2329,16,EXP8c_PretestTrials_l
pass,6345b7f49677d36bd07c5a10,EXP8c_FJ,0,2ab1f3c00a463a452d042a457c55214abd7f82feac1b545f6dcc94d6affdb2c1,2407.6178839206696,False,keypress,EXP8c_testRsp,178,[],choice-response,Lap,6347bd0363630e047ced3758,2022-10-13 03:23:47-04:00,short_tone_1,1289,17,EXP8c_PretestTrials_s
pass,6345b7f49677d36bd07c5a10,EXP8c_FJ,0,2ab1f3c00a463a452d042a457c55214abd7f82feac1b545f6dcc94d6affdb2c1,2407.6178839206696,False,keypress,EXP8c_testRsp,425,[],choice-response,Lap,6347bd0363630e047ced3758,2022-10-13 03:23:47-04:00,short_tone_1,4005,18,EXP8c_PretestTrials_s
pass,6345b7f49677d36bd07c5a10,EXP8c_FJ,0,2ab1f3c00a463a452d042a457c55214abd7f82feac1b545f6dcc94d6affdb2c1,2407.6178839206696,False,keypress,EXP8c_testRsp,612,[],choice-response,Lab,6347bd0363630e047ced3758,2022-10-13 03:23:47-04:00,long_tone_8,1905,19,EXP8c_PretestTrials_l
pass,6345b7f49677d36bd07c5a10,EXP8c_FJ,0,2ab1f3c00a463a452d042a457c55214abd7f82feac1b545f6dcc94d6affdb2c1,2407.6178839206696,False,keypress,EXP8c_testRsp,318,[],choice-response,Lap,6347bd0363630e047ced3758,2022-10-13 03:23:47-04:00,short_tone_1,1860,20,EXP8c_PretestTrials_s
pass,6345b7f49677d36bd07c5a10,EXP8c_FJ,0,2ab1f3c00a463a452d042a457c55214abd7f82feac1b545f6dcc94d6affdb2c1,2407.6178839206696,False,keypress,EXP8c_testRsp,334,[],choice-response,Lab,6347bd0363630e047ced3758,2022-10-13 03:23:47-04:00,long_tone_8,1797,21,EXP8c_PretestTrials_l
pass,6345b7f49677d36bd07c5a10,EXP8c_FJ,0,2ab1f3c00a463a452d042a457c55214abd7f82feac1b545f6dcc94d6affdb2c1,2407.6178839206696,False,keypress,EXP8c_testRsp,520,[],choice-response,Lap,6347bd0363630e047ced3758,2022-10-13 03:23:47-04:00,short_tone_1,3332,22,EXP8c_PretestTrials_s
pass,6345b7f49677d36bd07c5a10,EXP8c_FJ,0,2ab1f3c00a463a452d042a457c55214abd7f82feac1b545f6dcc94d6affdb2c1,2407.6178839206696,False,keypress,EXP8c_testRsp,272,[],choice-response,Lab,6347bd0363630e047ced3758,2022-10-13 03:23:47-04:00,long_tone_8,2461,23,EXP8c_PretestTrials_l
pass,6345b7f49677d36bd07c5a10,EXP8c_FJ,0,2ab1f3c00a463a452d042a457c55214abd7f82feac1b545f6dcc94d6affdb2c1,2407.6178839206696,False,keypress,EXP8c_testRsp,525,[],choice-response,Lap,6347bd0363630e047ced3758,2022-10-13 03:23:47-04:00,long_tone_8,2090,24,EXP8c_PretestTrials_l
pass,6345b7f49677d36bd07c5a10,EXP8c_FJ,0,2ab1f3c00a463a452d042a457c55214abd7f82feac1b545f6dcc94d6affdb2c1,2407.6178839206696,False,keypress,EXP8c_testRsp,358,[],choice-response,Lab,6347bd0363630e047ced3758,2022-10-13 03:23:47-04:00,short_tone_1,1668,25,EXP8c_PretestTrials_s
pass,6345b7f49677d36bd07c5a10,EXP8c_FJ,0,2ab1f3c00a463a452d042a457c55214abd7f82feac1b545f6dcc94d6affdb2c1,2407.6178839206696,False,keypress,EXP8c_testRsp,532,[],choice-response,Lab,6347bd0363630e047ced3758,2022-10-13 03:23:47-04:00,short_tone_1,1690,26,EXP8c_PretestTrials_s
pass,6345b7f49677d36bd07c5a10,EXP8c_FJ,0,2ab1f3c00a463a452d042a457c55214abd7f82feac1b545f6dcc94d6affdb2c1,2407.6178839206696,False,keypress,EXP8c_testRsp,771,[],choice-response,Lab,6347bd0363630e047ced3758,2022-10-13 03:23:47-04:00,long_tone_8,3037,27,EXP8c_PretestTrials_l
pass,6345b7f49677d36bd07c5a10,EXP8c_FJ,0,2ab1f3c00a463a452d042a457c55214abd7f82feac1b545f6dcc94d6affdb2c1,2407.6178839206696,False,keypress,EXP8c_testRsp,397,[],choice-response,Lap,6347bd0363630e047ced3758,2022-10-13 03:23:47-04:00,short_tone_1,4525,28,EXP8c_PretestTrials_s
pass,6345b7f49677d36bd07c5a10,EXP8c_FJ,0,2ab1f3c00a463a452d042a457c55214abd7f82feac1b545f6dcc94d6affdb2c1,2407.6178839206696,False,keypress,EXP8c_testRsp,812,[],choice-response,Lab,6347bd0363630e047ced3758,2022-10-13 03:23:47-04:00,long_tone_8,2102,29,EXP8c_PretestTrials_l
pass,6345b7f49677d36bd07c5a10,EXP8c_FJ,0,2ab1f3c00a463a452d042a457c55214abd7f82feac1b545f6dcc94d6affdb2c1,2407.6178839206696,False,keypress,EXP8c_testRsp,350,[],choice-response,Lap,6347bd0363630e047ced3758,2022-10-13 03:23:47-04:00,long_tone_8,3495,30,EXP8c_PretestTrials_l
pass,6345b7f49677d36bd07c5a10,EXP8c_FJ,0,2ab1f3c00a463a452d042a457c55214abd7f82feac1b545f6dcc94d6affdb2c1,2407.6178839206696,False,keypress,EXP8c_testRsp,404,[],choice-response,Lap,6347bd0363630e047ced3758,2022-10-13 03:23:47-04:00,short_tone_1,1511,31,EXP8c_PretestTrials_s
pass,6345b7f49677d36bd07c5a10,EXP8c_FJ,0,2ab1f3c00a463a452d042a457c55214abd7f82feac1b545f6dcc94d6affdb2c1,2407.6178839206696,False,keypress,EXP8c_testRsp,384,[],choice-response,Lap,6347bd0363630e047ced3758,2022-10-13 03:23:47-04:00,short_tone_1,1494,32,EXP8c_PretestTrials_s
pass,6345b7f49677d36bd07c5a10,EXP8c_FJ,0,2ab1f3c00a463a452d042a457c55214abd7f82feac1b545f6dcc94d6affdb2c1,2407.6178839206696,False,keypress,EXP8c_testRsp,563,[],choice-response,Lab,6347bd0363630e047ced3758,2022-10-13 03:23:47-04:00,long_tone_8,1848,33,EXP8c_PretestTrials_l
pass,6345b7f49677d36bd07c5a10,EXP8c_FJ,0,2ab1f3c00a463a452d042a457c55214abd7f82feac1b545f6dcc94d6affdb2c1,2407.6178839206696,False,keypress,EXP8c_testRsp,529,[],choice-response,Lab,6347bd0363630e047ced3758,2022-10-13 03:23:47-04:00,long_tone_8,1804,34,EXP8c_PretestTrials_l
pass,6345b7f49677d36bd07c5a10,EXP8c_FJ,0,2ab1f3c00a463a452d042a457c55214abd7f82feac1b545f6dcc94d6affdb2c1,2407.6178839206696,False,keypress,EXP8c_testRsp,278,[],choice-response,Lap,6347bd0363630e047ced3758,2022-10-13 03:23:47-04:00,short_tone_1,1387,35,EXP8c_PretestTrials_s
pass,6345b7f49677d36bd07c5a10,EXP8c_FJ,0,2ab1f3c00a463a452d042a457c55214abd7f82feac1b545f6dcc94d6affdb2c1,2407.6178839206696,False,keypress,EXP8c_testRsp,486,[],choice-response,Lab,6347bd0363630e047ced3758,2022-10-13 03:23:47-04:00,long_tone_8,2598,36,EXP8c_PretestTrials_l
pass,6345b7f49677d36bd07c5a10,EXP8c_FJ,0,2ab1f3c00a463a452d042a457c55214abd7f82feac1b545f6dcc94d6affdb2c1,2407.6178839206696,False,keypress,EXP8c_testRsp,400,[],choice-response,Lap,6347bd0363630e047ced3758,2022-10-13 03:23:47-04:00,short_tone_1,1628,37,EXP8c_PretestTrials_s
pass,6345b7f49677d36bd07c5a10,EXP8c_FJ,0,2ab1f3c00a463a452d042a457c55214abd7f82feac1b545f6dcc94d6affdb2c1,2407.6178839206696,False,keypress,EXP8c_testRsp,457,[],choice-response,Lab,6347bd0363630e047ced3758,2022-10-13 03:23:47-04:00,long_tone_8,1739,38,EXP8c_PretestTrials_l
pass,6345b7f49677d36bd07c5a10,EXP8c_FJ,0,2ab1f3c00a463a452d042a457c55214abd7f82feac1b545f6dcc94d6affdb2c1,2407.6178839206696,False,keypress,EXP8c_testRsp,368,[],choice-response,Lap,6347bd0363630e047ced3758,2022-10-13 03:23:47-04:00,short_tone_1,2084,39,EXP8c_PretestTrials_s
pass,6345b7f49677d36bd07c5a10,EXP8c_FJ,0,2ab1f3c00a463a452d042a457c55214abd7f82feac1b545f6dcc94d6affdb2c1,2407.6178839206696,False,keypress,EXP8c_testRsp,534,[],choice-response,Lap,6347bd0363630e047ced3758,2022-10-13 03:23:47-04:00,short_tone_1,1634,40,EXP8c_PretestTrials_s
pass,6345b7f49677d36bd07c5a10,EXP8c_FJ,0,2ab1f3c00a463a452d042a457c55214abd7f82feac1b545f6dcc94d6affdb2c1,2407.6178839206696,False,keypress,EXP8c_testRsp,448,[],choice-response,Lab,6347bd0363630e047ced3758,2022-10-13 03:23:47-04:00,long_tone_8,1798,41,EXP8c_PretestTrials_l
pass,6345b7f49677d36bd07c5a10,EXP8c_FJ,0,2ab1f3c00a463a452d042a457c55214abd7f82feac1b545f6dcc94d6affdb2c1,2407.6178839206696,False,keypress,EXP8c_testRsp,403,[],choice-response,Lap,6347bd0363630e047ced3758,2022-10-13 03:23:47-04:00,short_tone_1,1516,42,EXP8c_PretestTrials_s
pass,6345b7f49677d36bd07c5a10,EXP8c_FJ,0,2ab1f3c00a463a452d042a457c55214abd7f82feac1b545f6dcc94d6affdb2c1,2407.6178839206696,False,keypress,EXP8c_testRsp,985,[],choice-response,Lab,6347bd0363630e047ced3758,2022-10-13 03:23:47-04:00,long_tone_8,7528,43,EXP8c_PretestTrials_l
pass,6345b7f49677d36bd07c5a10,EXP8c_FJ,0,2ab1f3c00a463a452d042a457c55214abd7f82feac1b545f6dcc94d6affdb2c1,2407.6178839206696,False,keypress,EXP8c_testRsp,461,[],choice-response,Lap,6347bd0363630e047ced3758,2022-10-13 03:23:47-04:00,long_tone_8,1733,44,EXP8c_PretestTrials_l
pass,6345b7f49677d36bd07c5a10,EXP8c_FJ,0,2ab1f3c00a463a452d042a457c55214abd7f82feac1b545f6dcc94d6affdb2c1,2407.6178839206696,False,keypress,EXP8c_testRsp,300,[],choice-response,Lap,6347bd0363630e047ced3758,2022-10-13 03:23:47-04:00,short_tone_1,1424,45,EXP8c_PretestTrials_s
pass,6345b7f49677d36bd07c5a10,EXP8c_FJ,0,2ab1f3c00a463a452d042a457c55214abd7f82feac1b545f6dcc94d6affdb2c1,2407.6178839206696,False,keypress,EXP8c_testRsp,533,[],choice-response,Lab,6347bd0363630e047ced3758,2022-10-13 03:23:47-04:00,long_tone_8,1813,46,EXP8c_PretestTrials_l
pass,6345b7f49677d36bd07c5a10,EXP8c_FJ,0,2ab1f3c00a463a452d042a457c55214abd7f82feac1b545f6dcc94d6affdb2c1,2407.6178839206696,False,keypress,EXP8c_testRsp,449,[],choice-response,Lap,6347bd0363630e047ced3758,2022-10-13 03:23:47-04:00,short_tone_1,5093,47,EXP8c_PretestTrials_s
pass,6345b7f49677d36bd07c5a10,EXP8c_FJ,0,2ab1f3c00a463a452d042a457c55214abd7f82feac1b545f6dcc94d6affdb2c1,2407.6178839206696,False,keypress,EXP8c_testRsp,376,[],choice-response,Lap,6347bd0363630e047ced3758,2022-10-13 03:23:47-04:00,long_tone_8,1658,48,EXP8c_PretestTrials_l
pass,6345b7f49677d36bd07c5a10,EXP8c_FJ,0,2ab1f3c00a463a452d042a457c55214abd7f82feac1b545f6dcc94d6affdb2c1,2407.6178839206696,False,keypress,EXP8c_testRsp,400,[],choice-response,Lap,6347bd0363630e047ced3758,2022-10-13 03:23:47-04:00,short_tone_1,1516,49,EXP8c_PretestTrials_s
pass,6345b7f49677d36bd07c5a10,EXP8c_FJ,0,2ab1f3c00a463a452d042a457c55214abd7f82feac1b545f6dcc94d6affdb2c1,2407.6178839206696,False,keypress,EXP8c_testRsp,549,[],choice-response,Lab,6347bd0363630e047ced3758,2022-10-13 03:23:47-04:00,long_tone_8,1841,50,EXP8c_PretestTrials_l
pass,6345b7f49677d36bd07c5a10,EXP8c_FJ,0,2ab1f3c00a463a452d042a457c55214abd7f82feac1b545f6dcc94d6affdb2c1,2407.6178839206696,False,keypress,EXP8c_testRsp,390,[],choice-response,Lab,6347bd0363630e047ced3758,2022-10-13 03:23:47-04:00,short_tone_1,1501,51,EXP8c_PretestTrials_s
pass,6345b7f49677d36bd07c5a10,EXP8c_FJ,0,2ab1f3c00a463a452d042a457c55214abd7f82feac1b545f6dcc94d6affdb2c1,2407.6178839206696,False,keypress,EXP8c_testRsp,136,[],choice-response,Lap,6347bd0363630e047ced3758,2022-10-13 03:23:47-04:00,long_tone_8,1408,52,EXP8c_PretestTrials_l
pass,6345b7f49677d36bd07c5a10,EXP8c_FJ,0,2ab1f3c00a463a452d042a457c55214abd7f82feac1b545f6dcc94d6affdb2c1,2407.6178839206696,False,keypress,EXP8c_testRsp,168,[],choice-response,Lap,6347bd0363630e047ced3758,2022-10-13 03:23:47-04:00,short_tone_1,1264,53,EXP8c_PretestTrials_s
pass,6345b7f49677d36bd07c5a10,EXP8c_FJ,0,2ab1f3c00a463a452d042a457c55214abd7f82feac1b545f6dcc94d6affdb2c1,2407.6178839206696,False,keypress,EXP8c_testRsp,50,[],choice-response,Lap,6347bd0363630e047ced3758,2022-10-13 03:23:47-04:00,long_tone_8,1334,54,EXP8c_PretestTrials_l
pass,6345b7f49677d36bd07c5a10,EXP8c_FJ,0,2ab1f3c00a463a452d042a457c55214abd7f82feac1b545f6dcc94d6affdb2c1,2407.6178839206696,False,keypress,EXP8c_testRsp,158,[],choice-response,Lap,6347bd0363630e047ced3758,2022-10-13 03:23:47-04:00,short_tone_1,1272,55,EXP8c_PretestTrials_s
pass,6345b7f49677d36bd07c5a10,EXP8c_FJ,0,2ab1f3c00a463a452d042a457c55214abd7f82feac1b545f6dcc94d6affdb2c1,2407.6178839206696,False,keypress,EXP8c_testRsp,102,[],choice-response,Lap,6347bd0363630e047ced3758,2022-10-13 03:23:47-04:00,long_tone_8,1401,56,EXP8c_PretestTrials_l
pass,6345b7f49677d36bd07c5a10,EXP8c_FJ,0,2ab1f3c00a463a452d042a457c55214abd7f82feac1b545f6dcc94d6affdb2c1,2407.6178839206696,False,keypress,EXP8c_testRsp,167,[],choice-response,Lap,6347bd0363630e047ced3758,2022-10-13 03:23:47-04:00,short_tone_1,1271,57,EXP8c_PretestTrials_s
pass,6345b7f49677d36bd07c5a10,EXP8c_FJ,0,2ab1f3c00a463a452d042a457c55214abd7f82feac1b545f6dcc94d6affdb2c1,2407.6178839206696,False,keypress,EXP8c_testRsp,206,[],choice-response,Lap,6347bd0363630e047ced3758,2022-10-13 03:23:47-04:00,long_tone_8,1520,58,EXP8c_PretestTrials_l
pass,6345b7f49677d36bd07c5a10,EXP8c_FJ,0,2ab1f3c00a463a452d042a457c55214abd7f82feac1b545f6dcc94d6affdb2c1,2407.6178839206696,False,keypress,EXP8c_testRsp,312,[],choice-response,Lap,6347bd0363630e047ced3758,2022-10-13 03:23:47-04:00,short_tone_1,1442,59,EXP8c_PretestTrials_s
pass,6345b7f49677d36bd07c5a10,EXP8c_FJ,0,2ab1f3c00a463a452d042a457c55214abd7f82feac1b545f6dcc94d6affdb2c1,2407.6178839206696,False,keypress,EXP8c_testRsp,83,[],choice-response,Lap,6347bd0363630e047ced3758,2022-10-13 03:23:47-04:00,long_tone_8,1387,60,EXP8c_PretestTrials_l
pass,6345b7f49677d36bd07c5a10,EXP8c_FJ,0,2ab1f3c00a463a452d042a457c55214abd7f82feac1b545f6dcc94d6affdb2c1,2407.6178839206696,False,keypress,EXP8c_testRsp,154,[],choice-response,Lap,6347bd0363630e047ced3758,2022-10-13 03:23:47-04:00,short_tone_1,1282,61,EXP8c_PretestTrials_s
pass,6345b7f49677d36bd07c5a10,EXP8c_FJ,0,2ab1f3c00a463a452d042a457c55214abd7f82feac1b545f6dcc94d6affdb2c1,2407.6178839206696,False,keypress,EXP8c_testRsp,77,[],choice-response,Lap,6347bd0363630e047ced3758,2022-10-13 03:23:47-04:00,long_tone_8,1377,62,EXP8c_PretestTrials_l
pass,6345b7f49677d36bd07c5a10,EXP8c_FJ,0,2ab1f3c00a463a452d042a457c55214abd7f82feac1b545f6dcc94d6affdb2c1,2407.6178839206696,False,keypress,EXP8c_testRsp,269,[],choice-response,Lap,6347bd0363630e047ced3758,2022-10-13 03:23:47-04:00,short_tone_1,1709,63,EXP8c_PretestTrials_s
pass,6345b7f49677d36bd07c5a10,EXP8c_FJ,0,2ab1f3c00a463a452d042a457c55214abd7f82feac1b545f6dcc94d6affdb2c1,2407.6178839206696,False,keypress,EXP8c_testRsp,188,[],choice-response,Lap,6347bd0363630e047ced3758,2022-10-13 03:23:47-04:00,short_tone_1,1309,64,EXP8c_PretestTrials_s
pass,6345b7f49677d36bd07c5a10,EXP8c_FJ,0,2ab1f3c00a463a452d042a457c55214abd7f82feac1b545f6dcc94d6affdb2c1,2407.6178839206696,False,keypress,EXP8c_testRsp,326,[],choice-response,Lap,6347bd0363630e047ced3758,2022-10-13 03:23:47-04:00,long_tone_8,1602,65,EXP8c_PretestTrials_l
pass,6345b7f49677d36bd07c5a10,EXP8c_FJ,0,2ab1f3c00a463a452d042a457c55214abd7f82feac1b545f6dcc94d6affdb2c1,2407.6178839206696,False,keypress,EXP8c_testRsp,465,[],choice-response,Lap,6347bd0363630e047ced3758,2022-10-13 03:23:47-04:00,long_tone_8,3791,66,EXP8c_PretestTrials_l
pass,6345b7f49677d36bd07c5a10,EXP8c_FJ,0,2ab1f3c00a463a452d042a457c55214abd7f82feac1b545f6dcc94d6affdb2c1,2407.6178839206696,False,keypress,EXP8c_testRsp,551,[],choice-response,Lap,6347bd0363630e047ced3758,2022-10-13 03:23:47-04:00,short_tone_1,1780,67,EXP8c_PretestTrials_s
pass,6345b7f49677d36bd07c5a10,EXP8c_FJ,0,2ab1f3c00a463a452d042a457c55214abd7f82feac1b545f6dcc94d6affdb2c1,2407.6178839206696,True,keypress,EXP8c_exampleRsp_s_F,2275,['Lap'],choice-response,Lap,6347bd0363630e047ced3758,2022-10-13 03:23:47-04:00,single_300ms_ontime_delay_2_tone_Lab_1,8644,68,EXP8c_example_s
pass,6345b7f49677d36bd07c5a10,EXP8c_FJ,0,2ab1f3c00a463a452d042a457c55214abd7f82feac1b545f6dcc94d6affdb2c1,2407.6178839206696,False,keypress,EXP8c_exampleRsp_l_J,720,['Lab'],choice-response,Lap,6347bd0363630e047ced3758,2022-10-13 03:23:47-04:00,single_300ms_ontime_delay_2_tone_Lab_8,7304,69,EXP8c_example_l
pass,6345b7f49677d36bd07c5a10,EXP8c_FJ,0,2ab1f3c00a463a452d042a457c55214abd7f82feac1b545f6dcc94d6affdb2c1,2407.6178839206696,True,keypress,EXP8c_exampleRsp_l_J,855,['Lab'],choice-response,Lab,6347bd0363630e047ced3758,2022-10-13 03:23:47-04:00,single_300ms_ontime_delay_2_tone_Lab_8,7404,70,EXP8c_example_l
pass,6345b7f49677d36bd07c5a10,EXP8c_FJ,0,2ab1f3c00a463a452d042a457c55214abd7f82feac1b545f6dcc94d6affdb2c1,2407.6178839206696,True,keypress,EXP8c_exampleRsp_s_F,707,['Lap'],choice-response,Lap,6347bd0363630e047ced3758,2022-10-13 03:23:47-04:00,single_300ms_ontime_delay_2_tone_Lab_1,8317,71,EXP8c_example_s
pass,6345b7f49677d36bd07c5a10,EXP8c_FJ,0,2ab1f3c00a463a452d042a457c55214abd7f82feac1b545f6dcc94d6affdb2c1,2407.6178839206696,True,keypress,EXP8c_exampleRsp_l_J,554,['Lab'],choice-response,Lab,6347bd0363630e047ced3758,2022-10-13 03:23:47-04:00,single_300ms_ontime_delay_2_tone_Lab_8,7142,72,EXP8c_practiceTrials_l
pass,6345b7f49677d36bd07c5a10,EXP8c_FJ,0,2ab1f3c00a463a452d042a457c55214abd7f82feac1b545f6dcc94d6affdb2c1,2407.6178839206696,True,keypress,EXP8c_exampleRsp_s_F,637,['Lap'],choice-response,Lap,6347bd0363630e047ced3758,2022-10-13 03:23:47-04:00,single_300ms_ontime_delay_2_tone_Lab_1,7055,73,EXP8c_practiceTrials_s
pass,6345b7f49677d36bd07c5a10,EXP8c_FJ,0,2ab1f3c00a463a452d042a457c55214abd7f82feac1b545f6dcc94d6affdb2c1,2407.6178839206696,True,keypress,EXP8c_exampleRsp_s_F,726,['Lap'],choice-response,Lap,6347bd0363630e047ced3758,2022-10-13 03:23:47-04:00,single_300ms_ontime_delay_2_tone_Lab_1,7332,74,EXP8c_practiceTrials_s
pass,6345b7f49677d36bd07c5a10,EXP8c_FJ,0,2ab1f3c00a463a452d042a457c55214abd7f82feac1b545f6dcc94d6affdb2c1,2407.6178839206696,True,keypress,EXP8c_exampleRsp_l_J,2539,['Lab'],choice-response,Lab,6347bd0363630e047ced3758,2022-10-13 03:23:47-04:00,single_300ms_ontime_delay_2_tone_Lab_8,9623,75,EXP8c_practiceTrials_l
pass,6345b7f49677d36bd07c5a10,EXP8c_FJ,0,2ab1f3c00a463a452d042a457c55214abd7f82feac1b545f6dcc94d6affdb2c1,2407.6178839206696,True,keypress,EXP8c_exampleRsp_l_J,2261,['Lab'],choice-response,Lab,6347bd0363630e047ced3758,2022-10-13 03:23:47-04:00,single_300ms_ontime_delay_2_tone_Lab_8,8806,76,EXP8c_practiceTrials_l
pass,6345b7f49677d36bd07c5a10,EXP8c_FJ,0,2ab1f3c00a463a452d042a457c55214abd7f82feac1b545f6dcc94d6affdb2c1,2407.6178839206696,True,keypress,EXP8c_exampleRsp_s_F,691,['Lap'],choice-response,Lap,6347bd0363630e047ced3758,2022-10-13 03:23:47-04:00,single_300ms_ontime_delay_2_tone_Lab_1,7066,77,EXP8c_practiceTrials_s
pass,6345b7f49677d36bd07c5a10,EXP8c_FJ,0,2ab1f3c00a463a452d042a457c55214abd7f82feac1b545f6dcc94d6affdb2c1,2407.6178839206696,True,keypress,EXP8c_exampleRsp_s_F,538,['Lap'],choice-response,Lap,6347bd0363630e047ced3758,2022-10-13 03:23:47-04:00,single_300ms_ontime_delay_2_tone_Lab_1,6885,78,EXP8c_practiceTrials_s
pass,6345b7f49677d36bd07c5a10,EXP8c_FJ,0,2ab1f3c00a463a452d042a457c55214abd7f82feac1b545f6dcc94d6affdb2c1,2407.6178839206696,True,keypress,EXP8c_exampleRsp_l_J,315,['Lab'],choice-response,Lab,6347bd0363630e047ced3758,2022-10-13 03:23:47-04:00,single_300ms_ontime_delay_2_tone_Lab_8,7271,79,EXP8c_practiceTrials_l
pass,6345b7f49677d36bd07c5a10,EXP8c_FJ,0,2ab1f3c00a463a452d042a457c55214abd7f82feac1b545f6dcc94d6affdb2c1,2407.6178839206696,True,keypress,EXP8c_exampleRsp_s_F,361,['Lap'],choice-response,Lap,6347bd0363630e047ced3758,2022-10-13 03:23:47-04:00,single_300ms_ontime_delay_2_tone_Lab_1,6747,80,EXP8c_practiceTrials_s
pass,6345b7f49677d36bd07c5a10,EXP8c_FJ,0,2ab1f3c00a463a452d042a457c55214abd7f82feac1b545f6dcc94d6affdb2c1,2407.6178839206696,True,keypress,EXP8c_exampleRsp_l_J,310,['Lab'],choice-response,Lab,6347bd0363630e047ced3758,2022-10-13 03:23:47-04:00,single_300ms_ontime_delay_2_tone_Lab_8,6855,81,EXP8c_practiceTrials_l
pass,6345b7f49677d36bd07c5a10,EXP8c_FJ,0,2ab1f3c00a463a452d042a457c55214abd7f82feac1b545f6dcc94d6affdb2c1,2407.6178839206696,True,keypress,EXP8c_exampleRsp_s_F,290,['Lap'],choice-response,Lap,6347bd0363630e047ced3758,2022-10-13 03:23:47-04:00,single_300ms_ontime_delay_2_tone_Lab_1,6698,82,EXP8c_practiceTrials_s
pass,6345b7f49677d36bd07c5a10,EXP8c_FJ,0,2ab1f3c00a463a452d042a457c55214abd7f82feac1b545f6dcc94d6affdb2c1,2407.6178839206696,True,keypress,EXP8c_exampleRsp_l_J,346,['Lab'],choice-response,Lab,6347bd0363630e047ced3758,2022-10-13 03:23:47-04:00,single_300ms_ontime_delay_2_tone_Lab_8,6885,83,EXP8c_practiceTrials_l
pass,6345b7f49677d36bd07c5a10,EXP8c_FJ,0,2ab1f3c00a463a452d042a457c55214abd7f82feac1b545f6dcc94d6affdb2c1,2407.6178839206696,True,keypress,EXP8c_exampleRsp_l_J,413,['Lab'],choice-response,Lab,6347bd0363630e047ced3758,2022-10-13 03:23:47-04:00,single_300ms_ontime_delay_2_tone_Lab_8,6940,84,EXP8c_practiceTrials_l
pass,6345b7f49677d36bd07c5a10,EXP8c_FJ,0,2ab1f3c00a463a452d042a457c55214abd7f82feac1b545f6dcc94d6affdb2c1,2407.6178839206696,True,keypress,EXP8c_exampleRsp_s_F,338,['Lap'],choice-response,Lap,6347bd0363630e047ced3758,2022-10-13 03:23:47-04:00,single_300ms_ontime_delay_2_tone_Lab_1,7448,85,EXP8c_practiceTrials_s
pass,6345b7f49677d36bd07c5a10,EXP8c_FJ,0,2ab1f3c00a463a452d042a457c55214abd7f82feac1b545f6dcc94d6affdb2c1,2407.6178839206696,True,keypress,EXP8c_exampleRsp_l_J,939,['Lab'],choice-response,Lab,6347bd0363630e047ced3758,2022-10-13 03:23:47-04:00,single_300ms_ontime_delay_2_tone_Lab_8,8121,86,EXP8c_practiceTrials_l
pass,6345b7f49677d36bd07c5a10,EXP8c_FJ,0,2ab1f3c00a463a452d042a457c55214abd7f82feac1b545f6dcc94d6affdb2c1,2407.6178839206696,True,keypress,EXP8c_exampleRsp_s_F,872,['Lap'],choice-response,Lap,6347bd0363630e047ced3758,2022-10-13 03:23:47-04:00,single_300ms_ontime_delay_2_tone_Lab_1,7219,87,EXP8c_practiceTrials_s
pass,6345b7f49677d36bd07c5a10,EXP8c_FJ,0,2ab1f3c00a463a452d042a457c55214abd7f82feac1b545f6dcc94d6affdb2c1,2407.6178839206696,True,keypress,EXP8c_exampleRsp_l_J,1968,['Lab'],choice-response,Lab,6347bd0363630e047ced3758,2022-10-13 03:23:47-04:00,single_300ms_ontime_delay_2_tone_Lab_8,8522,88,EXP8c_practiceTrials_l
pass,6345b7f49677d36bd07c5a10,EXP8c_FJ,0,2ab1f3c00a463a452d042a457c55214abd7f82feac1b545f6dcc94d6affdb2c1,2407.6178839206696,True,keypress,EXP8c_exampleRsp_s_F,1254,['Lap'],choice-response,Lap,6347bd0363630e047ced3758,2022-10-13 03:23:47-04:00,single_300ms_ontime_delay_2_tone_Lab_1,8953,89,EXP8c_practiceTrials_s
pass,6345b7f49677d36bd07c5a10,EXP8c_FJ,0,2ab1f3c00a463a452d042a457c55214abd7f82feac1b545f6dcc94d6affdb2c1,2407.6178839206696,True,keypress,EXP8c_exampleRsp_l_J,306,['Lab'],choice-response,Lab,6347bd0363630e047ced3758,2022-10-13 03:23:47-04:00,single_300ms_ontime_delay_2_tone_Lab_8,6838,90,EXP8c_practiceTrials_l
pass,6345b7f49677d36bd07c5a10,EXP8c_FJ,0,2ab1f3c00a463a452d042a457c55214abd7f82feac1b545f6dcc94d6affdb2c1,2407.6178839206696,True,keypress,EXP8c_exampleRsp_s_F,258,['Lap'],choice-response,Lap,6347bd0363630e047ced3758,2022-10-13 03:23:47-04:00,single_300ms_ontime_delay_2_tone_Lab_1,6648,91,EXP8c_practiceTrials_s
pass,6345b7f49677d36bd07c5a10,EXP8c_FJ,0,2ab1f3c00a463a452d042a457c55214abd7f82feac1b545f6dcc94d6affdb2c1,2407.6178839206696,True,keypress,EXP8c_exampleRsp_l_J,805,['Lab'],choice-response,Lab,6347bd0363630e047ced3758,2022-10-13 03:23:47-04:00,single_300ms_ontime_delay_2_tone_Lab_8,7686,92,EXP8c_practiceTrials_l
pass,6345b7f49677d36bd07c5a10,EXP8c_FJ,0,2ab1f3c00a463a452d042a457c55214abd7f82feac1b545f6dcc94d6affdb2c1,2407.6178839206696,True,keypress,EXP8c_exampleRsp_s_F,507,['Lap'],choice-response,Lap,6347bd0363630e047ced3758,2022-10-13 03:23:47-04:00,single_300ms_ontime_delay_2_tone_Lab_1,6861,93,EXP8c_practiceTrials_s
pass,6345b7f49677d36bd07c5a10,EXP8c_FJ,0,2ab1f3c00a463a452d042a457c55214abd7f82feac1b545f6dcc94d6affdb2c1,2407.6178839206696,True,keypress,EXP8c_exampleRsp_s_F,248,['Lap'],choice-response,Lap,6347bd0363630e047ced3758,2022-10-13 03:23:47-04:00,single_300ms_ontime_delay_2_tone_Lab_1,6630,94,EXP8c_practiceTrials_s
pass,6345b7f49677d36bd07c5a10,EXP8c_FJ,0,2ab1f3c00a463a452d042a457c55214abd7f82feac1b545f6dcc94d6affdb2c1,2407.6178839206696,True,keypress,EXP8c_exampleRsp_l_J,511,['Lab'],choice-response,Lab,6347bd0363630e047ced3758,2022-10-13 03:23:47-04:00,single_300ms_ontime_delay_2_tone_Lab_8,7154,95,EXP8c_practiceTrials_l
pass,6345b7f49677d36bd07c5a10,EXP8c_FJ,0,2ab1f3c00a463a452d042a457c55214abd7f82feac1b545f6dcc94d6affdb2c1,2407.6178839206696,False,keypress,EXP8c_testRsp,2390,[],choice-response,Lap,6347bd0363630e047ced3758,2022-10-13 03:23:47-04:00,single_300ms_early_delay_2_tone_Lab_1,6050,96,EXP8c_maintaskTrials_2_s
pass,6345b7f49677d36bd07c5a10,EXP8c_FJ,0,2ab1f3c00a463a452d042a457c55214abd7f82feac1b545f6dcc94d6affdb2c1,2407.6178839206696,False,keypress,EXP8c_testRsp,367,[],choice-response,Lap,6347bd0363630e047ced3758,2022-10-13 03:23:47-04:00,single_300ms_ontime_delay_2_tone_Lab_8,4297,97,EXP8c_maintaskTrials_2_l
pass,6345b7f49677d36bd07c5a10,EXP8c_FJ,0,2ab1f3c00a463a452d042a457c55214abd7f82feac1b545f6dcc94d6affdb2c1,2407.6178839206696,False,keypress,EXP8c_testRsp,528,[],choice-response,Lab,6347bd0363630e047ced3758,2022-10-13 03:23:47-04:00,single_300ms_late_delay_2_tone_Lab_3,6837,98,EXP8c_maintaskTrials_2_s
pass,6345b7f49677d36bd07c5a10,EXP8c_FJ,0,2ab1f3c00a463a452d042a457c55214abd7f82feac1b545f6dcc94d6affdb2c1,2407.6178839206696,False,keypress,EXP8c_testRsp,1341,[],choice-response,Lap,6347bd0363630e047ced3758,2022-10-13 03:23:47-04:00,single_300ms_late_delay_2_tone_Lab_4,6474,99,EXP8c_maintaskTrials_2_s
pass,6345b7f49677d36bd07c5a10,EXP8c_FJ,0,2ab1f3c00a463a452d042a457c55214abd7f82feac1b545f6dcc94d6affdb2c1,2407.6178839206696,False,keypress,EXP8c_testRsp,987,[],choice-response,Lap,6347bd0363630e047ced3758,2022-10-13 03:23:47-04:00,single_300ms_ontime_delay_2_tone_Lab_6,4907,100,EXP8c_maintaskTrials_2_l
pass,6345b7f49677d36bd07c5a10,EXP8c_FJ,0,2ab1f3c00a463a452d042a457c55214abd7f82feac1b545f6dcc94d6affdb2c1,2407.6178839206696,False,keypress,EXP8c_testRsp,147,[],choice-response,Lap,6347bd0363630e047ced3758,2022-10-13 03:23:47-04:00,single_300ms_ontime_delay_2_tone_Lab_7,5106,101,EXP8c_maintaskTrials_2_l
pass,6345b7f49677d36bd07c5a10,EXP8c_FJ,0,2ab1f3c00a463a452d042a457c55214abd7f82feac1b545f6dcc94d6affdb2c1,2407.6178839206696,False,keypress,EXP8c_testRsp,388,[],choice-response,Lap,6347bd0363630e047ced3758,2022-10-13 03:23:47-04:00,single_300ms_late_delay_2_tone_Lab_5,5350,102,EXP8c_maintaskTrials_2_l
pass,6345b7f49677d36bd07c5a10,EXP8c_FJ,0,2ab1f3c00a463a452d042a457c55214abd7f82feac1b545f6dcc94d6affdb2c1,2407.6178839206696,False,keypress,EXP8c_testRsp,326,[],choice-response,Lap,6347bd0363630e047ced3758,2022-10-13 03:23:47-04:00,single_300ms_early_delay_2_tone_Lab_8,5746,103,EXP8c_maintaskTrials_2_l
pass,6345b7f49677d36bd07c5a10,EXP8c_FJ,0,2ab1f3c00a463a452d042a457c55214abd7f82feac1b545f6dcc94d6affdb2c1,2407.6178839206696,False,keypress,EXP8c_testRsp,262,[],choice-response,Lap,6347bd0363630e047ced3758,2022-10-13 03:23:47-04:00,single_300ms_early_delay_2_tone_Lab_4,4007,104,EXP8c_maintaskTrials_2_s
pass,6345b7f49677d36bd07c5a10,EXP8c_FJ,0,2ab1f3c00a463a452d042a457c55214abd7f82feac1b545f6dcc94d6affdb2c1,2407.6178839206696,False,keypress,EXP8c_testRsp,454,[],choice-response,Lap,6347bd0363630e047ced3758,2022-10-13 03:23:47-04:00,single_300ms_late_delay_2_tone_Lab_8,6707,105,EXP8c_maintaskTrials_2_l
pass,6345b7f49677d36bd07c5a10,EXP8c_FJ,0,2ab1f3c00a463a452d042a457c55214abd7f82feac1b545f6dcc94d6affdb2c1,2407.6178839206696,False,keypress,EXP8c_testRsp,634,[],choice-response,Lap,6347bd0363630e047ced3758,2022-10-13 03:23:47-04:00,single_300ms_late_delay_2_tone_Lab_1,4736,106,EXP8c_maintaskTrials_2_s
pass,6345b7f49677d36bd07c5a10,EXP8c_FJ,0,2ab1f3c00a463a452d042a457c55214abd7f82feac1b545f6dcc94d6affdb2c1,2407.6178839206696,False,keypress,cat_catchRsp,507,['Cat meowing'],choice-response,Dog barking,6347bd0363630e047ced3758,2022-10-13 03:23:47-04:00,cat_meowing,5350,107,Catch_cat
pass,6345b7f49677d36bd07c5a10,EXP8c_FJ,0,2ab1f3c00a463a452d042a457c55214abd7f82feac1b545f6dcc94d6affdb2c1,2407.6178839206696,False,keypress,EXP8c_testRsp,675,[],choice-response,Lap,6347bd0363630e047ced3758,2022-10-13 03:23:47-04:00,single_300ms_ontime_delay_2_tone_Lab_2,7635,108,EXP8c_maintaskTrials_2_s
pass,6345b7f49677d36bd07c5a10,EXP8c_FJ,0,2ab1f3c00a463a452d042a457c55214abd7f82feac1b545f6dcc94d6affdb2c1,2407.6178839206696,False,keypress,EXP8c_testRsp,659,[],choice-response,Lap,6347bd0363630e047ced3758,2022-10-13 03:23:47-04:00,single_300ms_ontime_delay_2_tone_Lab_1,4459,109,EXP8c_maintaskTrials_2_s
pass,6345b7f49677d36bd07c5a10,EXP8c_FJ,0,2ab1f3c00a463a452d042a457c55214abd7f82feac1b545f6dcc94d6affdb2c1,2407.6178839206696,False,keypress,EXP8c_testRsp,853,[],choice-response,Lap,6347bd0363630e047ced3758,2022-10-13 03:23:47-04:00,single_300ms_late_delay_2_tone_Lab_2,4748,110,EXP8c_maintaskTrials_2_s
pass,6345b7f49677d36bd07c5a10,EXP8c_FJ,0,2ab1f3c00a463a452d042a457c55214abd7f82feac1b545f6dcc94d6affdb2c1,2407.6178839206696,False,keypress,EXP8c_testRsp,530,[],choice-response,Lap,6347bd0363630e047ced3758,2022-10-13 03:23:47-04:00,single_300ms_late_delay_2_tone_Lab_6,6789,111,EXP8c_maintaskTrials_2_l
pass,6345b7f49677d36bd07c5a10,EXP8c_FJ,0,2ab1f3c00a463a452d042a457c55214abd7f82feac1b545f6dcc94d6affdb2c1,2407.6178839206696,False,keypress,EXP8c_testRsp,971,[],choice-response,Lap,6347bd0363630e047ced3758,2022-10-13 03:23:47-04:00,single_300ms_late_delay_2_tone_Lab_7,5488,112,EXP8c_maintaskTrials_2_l
pass,6345b7f49677d36bd07c5a10,EXP8c_FJ,0,2ab1f3c00a463a452d042a457c55214abd7f82feac1b545f6dcc94d6affdb2c1,2407.6178839206696,False,keypress,EXP8c_testRsp,906,[],choice-response,Lap,6347bd0363630e047ced3758,2022-10-13 03:23:47-04:00,single_300ms_early_delay_2_tone_Lab_2,4619,113,EXP8c_maintaskTrials_2_s
pass,6345b7f49677d36bd07c5a10,EXP8c_FJ,0,2ab1f3c00a463a452d042a457c55214abd7f82feac1b545f6dcc94d6affdb2c1,2407.6178839206696,False,keypress,EXP8c_testRsp,186,[],choice-response,Lap,6347bd0363630e047ced3758,2022-10-13 03:23:47-04:00,single_300ms_early_delay_2_tone_Lab_7,10730,114,EXP8c_maintaskTrials_2_l
pass,6345b7f49677d36bd07c5a10,EXP8c_FJ,0,2ab1f3c00a463a452d042a457c55214abd7f82feac1b545f6dcc94d6affdb2c1,2407.6178839206696,False,keypress,EXP8c_testRsp,220,[],choice-response,Lap,6347bd0363630e047ced3758,2022-10-13 03:23:47-04:00,single_300ms_early_delay_2_tone_Lab_3,3926,115,EXP8c_maintaskTrials_2_s
pass,6345b7f49677d36bd07c5a10,EXP8c_FJ,0,2ab1f3c00a463a452d042a457c55214abd7f82feac1b545f6dcc94d6affdb2c1,2407.6178839206696,False,keypress,EXP8c_testRsp,452,[],choice-response,Lap,6347bd0363630e047ced3758,2022-10-13 03:23:47-04:00,single_300ms_ontime_delay_2_tone_Lab_3,4872,116,EXP8c_maintaskTrials_2_s
pass,6345b7f49677d36bd07c5a10,EXP8c_FJ,0,2ab1f3c00a463a452d042a457c55214abd7f82feac1b545f6dcc94d6affdb2c1,2407.6178839206696,False,keypress,EXP8c_testRsp,335,[],choice-response,Lap,6347bd0363630e047ced3758,2022-10-13 03:23:47-04:00,single_300ms_ontime_delay_2_tone_Lab_5,4180,117,EXP8c_maintaskTrials_2_l
pass,6345b7f49677d36bd07c5a10,EXP8c_FJ,0,2ab1f3c00a463a452d042a457c55214abd7f82feac1b545f6dcc94d6affdb2c1,2407.6178839206696,False,keypress,EXP8c_testRsp,243,[],choice-response,Lap,6347bd0363630e047ced3758,2022-10-13 03:23:47-04:00,single_300ms_early_delay_2_tone_Lab_6,4200,118,EXP8c_maintaskTrials_2_l
pass,6345b7f49677d36bd07c5a10,EXP8c_FJ,0,2ab1f3c00a463a452d042a457c55214abd7f82feac1b545f6dcc94d6affdb2c1,2407.6178839206696,False,keypress,cat_catchRsp,705,['Cat meowing'],choice-response,Dog barking,6347bd0363630e047ced3758,2022-10-13 03:23:47-04:00,cat_meowing,4055,119,Catch_cat
pass,6345b7f49677d36bd07c5a10,EXP8c_FJ,0,2ab1f3c00a463a452d042a457c55214abd7f82feac1b545f6dcc94d6affdb2c1,2407.6178839206696,False,keypress,EXP8c_testRsp,324,[],choice-response,Lap,6347bd0363630e047ced3758,2022-10-13 03:23:47-04:00,single_300ms_early_delay_2_tone_Lab_5,4538,120,EXP8c_maintaskTrials_2_l
pass,6345b7f49677d36bd07c5a10,EXP8c_FJ,0,2ab1f3c00a463a452d042a457c55214abd7f82feac1b545f6dcc94d6affdb2c1,2407.6178839206696,False,keypress,EXP8c_testRsp,227,[],choice-response,Lap,6347bd0363630e047ced3758,2022-10-13 03:23:47-04:00,single_300ms_ontime_delay_2_tone_Lab_4,5805,121,EXP8c_maintaskTrials_2_s
pass,6345b7f49677d36bd07c5a10,EXP8c_FJ,0,2ab1f3c00a463a452d042a457c55214abd7f82feac1b545f6dcc94d6affdb2c1,2407.6178839206696,False,keypress,EXP8c_testRsp,383,[],choice-response,Lab,6347bd0363630e047ced3758,2022-10-13 03:23:47-04:00,single_300ms_ontime_delay_2_tone_Lab_8,5751,122,EXP8c_maintaskTrials_2_l
pass,6345b7f49677d36bd07c5a10,EXP8c_FJ,0,2ab1f3c00a463a452d042a457c55214abd7f82feac1b545f6dcc94d6affdb2c1,2407.6178839206696,False,keypress,EXP8c_testRsp,450,[],choice-response,Lab,6347bd0363630e047ced3758,2022-10-13 03:23:47-04:00,single_300ms_early_delay_2_tone_Lab_6,4206,123,EXP8c_maintaskTrials_2_l
pass,6345b7f49677d36bd07c5a10,EXP8c_FJ,0,2ab1f3c00a463a452d042a457c55214abd7f82feac1b545f6dcc94d6affdb2c1,2407.6178839206696,False,keypress,EXP8c_testRsp,631,[],choice-response,Lab,6347bd0363630e047ced3758,2022-10-13 03:23:47-04:00,single_300ms_late_delay_2_tone_Lab_3,4546,124,EXP8c_maintaskTrials_2_s
pass,6345b7f49677d36bd07c5a10,EXP8c_FJ,0,2ab1f3c00a463a452d042a457c55214abd7f82feac1b545f6dcc94d6affdb2c1,2407.6178839206696,False,keypress,EXP8c_testRsp,671,[],choice-response,Lab,6347bd0363630e047ced3758,2022-10-13 03:23:47-04:00,single_300ms_early_delay_2_tone_Lab_1,4315,125,EXP8c_maintaskTrials_2_s
pass,6345b7f49677d36bd07c5a10,EXP8c_FJ,0,2ab1f3c00a463a452d042a457c55214abd7f82feac1b545f6dcc94d6affdb2c1,2407.6178839206696,False,keypress,EXP8c_testRsp,311,[],choice-response,Lab,6347bd0363630e047ced3758,2022-10-13 03:23:47-04:00,single_300ms_late_delay_2_tone_Lab_7,10394,126,EXP8c_maintaskTrials_2_l
pass,6345b7f49677d36bd07c5a10,EXP8c_FJ,0,2ab1f3c00a463a452d042a457c55214abd7f82feac1b545f6dcc94d6affdb2c1,2407.6178839206696,False,keypress,EXP8c_testRsp,517,[],choice-response,Lab,6347bd0363630e047ced3758,2022-10-13 03:23:47-04:00,single_300ms_late_delay_2_tone_Lab_2,4880,127,EXP8c_maintaskTrials_2_s
pass,6345b7f49677d36bd07c5a10,EXP8c_FJ,0,2ab1f3c00a463a452d042a457c55214abd7f82feac1b545f6dcc94d6affdb2c1,2407.6178839206696,False,keypress,EXP8c_testRsp,495,[],choice-response,Lab,6347bd0363630e047ced3758,2022-10-13 03:23:47-04:00,single_300ms_ontime_delay_2_tone_Lab_6,4377,128,EXP8c_maintaskTrials_2_l
pass,6345b7f49677d36bd07c5a10,EXP8c_FJ,0,2ab1f3c00a463a452d042a457c55214abd7f82feac1b545f6dcc94d6affdb2c1,2407.6178839206696,False,keypress,EXP8c_testRsp,395,[],choice-response,Lab,6347bd0363630e047ced3758,2022-10-13 03:23:47-04:00,single_300ms_ontime_delay_2_tone_Lab_5,4236,129,EXP8c_maintaskTrials_2_l
pass,6345b7f49677d36bd07c5a10,EXP8c_FJ,0,2ab1f3c00a463a452d042a457c55214abd7f82feac1b545f6dcc94d6affdb2c1,2407.6178839206696,False,keypress,EXP8c_testRsp,409,[],choice-response,Lab,6347bd0363630e047ced3758,2022-10-13 03:23:47-04:00,single_300ms_late_delay_2_tone_Lab_5,5578,130,EXP8c_maintaskTrials_2_l
pass,6345b7f49677d36bd07c5a10,EXP8c_FJ,0,2ab1f3c00a463a452d042a457c55214abd7f82feac1b545f6dcc94d6affdb2c1,2407.6178839206696,True,keypress,cat_catchRsp,4049,['Cat meowing'],choice-response,Cat meowing,6347bd0363630e047ced3758,2022-10-13 03:23:47-04:00,cat_meowing,9168,131,Catch_cat
pass,6345b7f49677d36bd07c5a10,EXP8c_FJ,0,2ab1f3c00a463a452d042a457c55214abd7f82feac1b545f6dcc94d6affdb2c1,2407.6178839206696,False,keypress,EXP8c_testRsp,1606,[],choice-response,Lap,6347bd0363630e047ced3758,2022-10-13 03:23:47-04:00,single_300ms_late_delay_2_tone_Lab_8,8389,132,EXP8c_maintaskTrials_2_l
pass,6345b7f49677d36bd07c5a10,EXP8c_FJ,0,2ab1f3c00a463a452d042a457c55214abd7f82feac1b545f6dcc94d6affdb2c1,2407.6178839206696,False,keypress,EXP8c_testRsp,1103,[],choice-response,Lab,6347bd0363630e047ced3758,2022-10-13 03:23:47-04:00,single_300ms_ontime_delay_2_tone_Lab_2,6814,133,EXP8c_maintaskTrials_2_s
pass,6345b7f49677d36bd07c5a10,EXP8c_FJ,0,2ab1f3c00a463a452d042a457c55214abd7f82feac1b545f6dcc94d6affdb2c1,2407.6178839206696,False,keypress,EXP8c_testRsp,689,[],choice-response,Lab,6347bd0363630e047ced3758,2022-10-13 03:23:47-04:00,single_300ms_ontime_delay_2_tone_Lab_7,4619,134,EXP8c_maintaskTrials_2_l
pass,6345b7f49677d36bd07c5a10,EXP8c_FJ,0,2ab1f3c00a463a452d042a457c55214abd7f82feac1b545f6dcc94d6affdb2c1,2407.6178839206696,False,keypress,EXP8c_testRsp,1308,[],choice-response,Lab,6347bd0363630e047ced3758,2022-10-13 03:23:47-04:00,single_300ms_early_delay_2_tone_Lab_2,5475,135,EXP8c_maintaskTrials_2_s
pass,6345b7f49677d36bd07c5a10,EXP8c_FJ,0,2ab1f3c00a463a452d042a457c55214abd7f82feac1b545f6dcc94d6affdb2c1,2407.6178839206696,False,keypress,EXP8c_testRsp,1490,[],choice-response,Lab,6347bd0363630e047ced3758,2022-10-13 03:23:47-04:00,single_300ms_ontime_delay_2_tone_Lab_4,6834,136,EXP8c_maintaskTrials_2_s
pass,6345b7f49677d36bd07c5a10,EXP8c_FJ,0,2ab1f3c00a463a452d042a457c55214abd7f82feac1b545f6dcc94d6affdb2c1,2407.6178839206696,False,keypress,EXP8c_testRsp,1001,[],choice-response,Lab,6347bd0363630e047ced3758,2022-10-13 03:23:47-04:00,single_300ms_early_delay_2_tone_Lab_7,4795,137,EXP8c_maintaskTrials_2_l
pass,6345b7f49677d36bd07c5a10,EXP8c_FJ,0,2ab1f3c00a463a452d042a457c55214abd7f82feac1b545f6dcc94d6affdb2c1,2407.6178839206696,False,keypress,EXP8c_testRsp,477,[],choice-response,Lab,6347bd0363630e047ced3758,2022-10-13 03:23:47-04:00,single_300ms_early_delay_2_tone_Lab_3,4181,138,EXP8c_maintaskTrials_2_s
pass,6345b7f49677d36bd07c5a10,EXP8c_FJ,0,2ab1f3c00a463a452d042a457c55214abd7f82feac1b545f6dcc94d6affdb2c1,2407.6178839206696,False,keypress,EXP8c_testRsp,365,[],choice-response,Lab,6347bd0363630e047ced3758,2022-10-13 03:23:47-04:00,single_300ms_late_delay_2_tone_Lab_1,5226,139,EXP8c_maintaskTrials_2_s
pass,6345b7f49677d36bd07c5a10,EXP8c_FJ,0,2ab1f3c00a463a452d042a457c55214abd7f82feac1b545f6dcc94d6affdb2c1,2407.6178839206696,False,keypress,EXP8c_testRsp,1011,[],choice-response,Lab,6347bd0363630e047ced3758,2022-10-13 03:23:47-04:00,single_300ms_late_delay_2_tone_Lab_6,6004,140,EXP8c_maintaskTrials_2_l
pass,6345b7f49677d36bd07c5a10,EXP8c_FJ,0,2ab1f3c00a463a452d042a457c55214abd7f82feac1b545f6dcc94d6affdb2c1,2407.6178839206696,False,keypress,EXP8c_testRsp,1030,[],choice-response,Lab,6347bd0363630e047ced3758,2022-10-13 03:23:47-04:00,single_300ms_ontime_delay_2_tone_Lab_1,4819,141,EXP8c_maintaskTrials_2_s
pass,6345b7f49677d36bd07c5a10,EXP8c_FJ,0,2ab1f3c00a463a452d042a457c55214abd7f82feac1b545f6dcc94d6affdb2c1,2407.6178839206696,False,keypress,EXP8c_testRsp,419,[],choice-response,Lab,6347bd0363630e047ced3758,2022-10-13 03:23:47-04:00,single_300ms_late_delay_2_tone_Lab_4,6527,142,EXP8c_maintaskTrials_2_s
pass,6345b7f49677d36bd07c5a10,EXP8c_FJ,0,2ab1f3c00a463a452d042a457c55214abd7f82feac1b545f6dcc94d6affdb2c1,2407.6178839206696,True,keypress,cat_catchRsp,1787,['Cat meowing'],choice-response,Cat meowing,6347bd0363630e047ced3758,2022-10-13 03:23:47-04:00,cat_meowing,5127,143,Catch_cat
pass,6345b7f49677d36bd07c5a10,EXP8c_FJ,0,2ab1f3c00a463a452d042a457c55214abd7f82feac1b545f6dcc94d6affdb2c1,2407.6178839206696,False,keypress,EXP8c_testRsp,104,[],choice-response,Lab,6347bd0363630e047ced3758,2022-10-13 03:23:47-04:00,single_300ms_early_delay_2_tone_Lab_8,4346,144,EXP8c_maintaskTrials_2_l
pass,6345b7f49677d36bd07c5a10,EXP8c_FJ,0,2ab1f3c00a463a452d042a457c55214abd7f82feac1b545f6dcc94d6affdb2c1,2407.6178839206696,False,keypress,EXP8c_testRsp,253,[],choice-response,Lab,6347bd0363630e047ced3758,2022-10-13 03:23:47-04:00,single_300ms_early_delay_2_tone_Lab_5,3998,145,EXP8c_maintaskTrials_2_l
pass,6345b7f49677d36bd07c5a10,EXP8c_FJ,0,2ab1f3c00a463a452d042a457c55214abd7f82feac1b545f6dcc94d6affdb2c1,2407.6178839206696,False,keypress,EXP8c_testRsp,318,[],choice-response,Lab,6347bd0363630e047ced3758,2022-10-13 03:23:47-04:00,single_300ms_early_delay_2_tone_Lab_4,6310,146,EXP8c_maintaskTrials_2_s
pass,6345b7f49677d36bd07c5a10,EXP8c_FJ,0,2ab1f3c00a463a452d042a457c55214abd7f82feac1b545f6dcc94d6affdb2c1,2407.6178839206696,False,keypress,EXP8c_testRsp,368,[],choice-response,Lab,6347bd0363630e047ced3758,2022-10-13 03:23:47-04:00,single_300ms_ontime_delay_2_tone_Lab_3,4524,147,EXP8c_maintaskTrials_2_s
pass,6345b7f49677d36bd07c5a10,EXP8c_FJ,0,2ab1f3c00a463a452d042a457c55214abd7f82feac1b545f6dcc94d6affdb2c1,2407.6178839206696,False,keypress,EXP8c_testRsp,453,[],choice-response,Lab,6347bd0363630e047ced3758,2022-10-13 03:23:47-04:00,single_300ms_ontime_delay_2_tone_Lab_3,6578,148,EXP8c_maintaskTrials_2_s
pass,6345b7f49677d36bd07c5a10,EXP8c_FJ,0,2ab1f3c00a463a452d042a457c55214abd7f82feac1b545f6dcc94d6affdb2c1,2407.6178839206696,False,keypress,EXP8c_testRsp,448,[],choice-response,Lab,6347bd0363630e047ced3758,2022-10-13 03:23:47-04:00,single_300ms_ontime_delay_2_tone_Lab_1,6218,149,EXP8c_maintaskTrials_2_s
pass,6345b7f49677d36bd07c5a10,EXP8c_FJ,0,2ab1f3c00a463a452d042a457c55214abd7f82feac1b545f6dcc94d6affdb2c1,2407.6178839206696,False,keypress,EXP8c_testRsp,638,[],choice-response,Lab,6347bd0363630e047ced3758,2022-10-13 03:23:47-04:00,single_300ms_late_delay_2_tone_Lab_1,4523,150,EXP8c_maintaskTrials_2_s
pass,6345b7f49677d36bd07c5a10,EXP8c_FJ,0,2ab1f3c00a463a452d042a457c55214abd7f82feac1b545f6dcc94d6affdb2c1,2407.6178839206696,False,keypress,EXP8c_testRsp,274,[],choice-response,Lab,6347bd0363630e047ced3758,2022-10-13 03:23:47-04:00,single_300ms_late_delay_2_tone_Lab_8,4292,151,EXP8c_maintaskTrials_2_l
pass,6345b7f49677d36bd07c5a10,EXP8c_FJ,0,2ab1f3c00a463a452d042a457c55214abd7f82feac1b545f6dcc94d6affdb2c1,2407.6178839206696,False,keypress,EXP8c_testRsp,189,[],choice-response,Lab,6347bd0363630e047ced3758,2022-10-13 03:23:47-04:00,single_300ms_late_delay_2_tone_Lab_5,6607,152,EXP8c_maintaskTrials_2_l
pass,6345b7f49677d36bd07c5a10,EXP8c_FJ,0,2ab1f3c00a463a452d042a457c55214abd7f82feac1b545f6dcc94d6affdb2c1,2407.6178839206696,False,keypress,EXP8c_testRsp,736,[],choice-response,Lab,6347bd0363630e047ced3758,2022-10-13 03:23:47-04:00,single_300ms_ontime_delay_2_tone_Lab_8,4665,153,EXP8c_maintaskTrials_2_l
pass,6345b7f49677d36bd07c5a10,EXP8c_FJ,0,2ab1f3c00a463a452d042a457c55214abd7f82feac1b545f6dcc94d6affdb2c1,2407.6178839206696,False,keypress,EXP8c_testRsp,765,[],choice-response,Lab,6347bd0363630e047ced3758,2022-10-13 03:23:47-04:00,single_300ms_early_delay_2_tone_Lab_6,6085,154,EXP8c_maintaskTrials_2_l
pass,6345b7f49677d36bd07c5a10,EXP8c_FJ,0,2ab1f3c00a463a452d042a457c55214abd7f82feac1b545f6dcc94d6affdb2c1,2407.6178839206696,True,keypress,cat_catchRsp,763,['Cat meowing'],choice-response,Cat meowing,6347bd0363630e047ced3758,2022-10-13 03:23:47-04:00,cat_meowing,4119,155,Catch_cat
pass,6345b7f49677d36bd07c5a10,EXP8c_FJ,0,2ab1f3c00a463a452d042a457c55214abd7f82feac1b545f6dcc94d6affdb2c1,2407.6178839206696,False,keypress,EXP8c_testRsp,175,[],choice-response,Lab,6347bd0363630e047ced3758,2022-10-13 03:23:47-04:00,single_300ms_late_delay_2_tone_Lab_7,6256,156,EXP8c_maintaskTrials_2_l
pass,6345b7f49677d36bd07c5a10,EXP8c_FJ,0,2ab1f3c00a463a452d042a457c55214abd7f82feac1b545f6dcc94d6affdb2c1,2407.6178839206696,False,keypress,EXP8c_testRsp,414,[],choice-response,Lab,6347bd0363630e047ced3758,2022-10-13 03:23:47-04:00,single_300ms_early_delay_2_tone_Lab_8,4233,157,EXP8c_maintaskTrials_2_l
pass,6345b7f49677d36bd07c5a10,EXP8c_FJ,0,2ab1f3c00a463a452d042a457c55214abd7f82feac1b545f6dcc94d6affdb2c1,2407.6178839206696,False,keypress,EXP8c_testRsp,420,[],choice-response,Lab,6347bd0363630e047ced3758,2022-10-13 03:23:47-04:00,single_300ms_late_delay_2_tone_Lab_3,4322,158,EXP8c_maintaskTrials_2_s
pass,6345b7f49677d36bd07c5a10,EXP8c_FJ,0,2ab1f3c00a463a452d042a457c55214abd7f82feac1b545f6dcc94d6affdb2c1,2407.6178839206696,False,keypress,EXP8c_testRsp,2446,[],choice-response,Lab,6347bd0363630e047ced3758,2022-10-13 03:23:47-04:00,single_300ms_early_delay_2_tone_Lab_7,8449,159,EXP8c_maintaskTrials_2_l
pass,6345b7f49677d36bd07c5a10,EXP8c_FJ,0,2ab1f3c00a463a452d042a457c55214abd7f82feac1b545f6dcc94d6affdb2c1,2407.6178839206696,False,keypress,EXP8c_testRsp,2669,[],choice-response,Lab,6347bd0363630e047ced3758,2022-10-13 03:23:47-04:00,single_300ms_early_delay_2_tone_Lab_4,6694,160,EXP8c_maintaskTrials_2_s
pass,6345b7f49677d36bd07c5a10,EXP8c_FJ,0,2ab1f3c00a463a452d042a457c55214abd7f82feac1b545f6dcc94d6affdb2c1,2407.6178839206696,False,keypress,EXP8c_testRsp,524,[],choice-response,Lab,6347bd0363630e047ced3758,2022-10-13 03:23:47-04:00,single_300ms_late_delay_2_tone_Lab_6,4532,161,EXP8c_maintaskTrials_2_l
pass,6345b7f49677d36bd07c5a10,EXP8c_FJ,0,2ab1f3c00a463a452d042a457c55214abd7f82feac1b545f6dcc94d6affdb2c1,2407.6178839206696,False,keypress,EXP8c_testRsp,481,[],choice-response,Lab,6347bd0363630e047ced3758,2022-10-13 03:23:47-04:00,single_300ms_late_delay_2_tone_Lab_2,4353,162,EXP8c_maintaskTrials_2_s
pass,6345b7f49677d36bd07c5a10,EXP8c_FJ,0,2ab1f3c00a463a452d042a457c55214abd7f82feac1b545f6dcc94d6affdb2c1,2407.6178839206696,False,keypress,EXP8c_testRsp,641,[],choice-response,Lab,6347bd0363630e047ced3758,2022-10-13 03:23:47-04:00,single_300ms_ontime_delay_2_tone_Lab_6,4515,163,EXP8c_maintaskTrials_2_l
pass,6345b7f49677d36bd07c5a10,EXP8c_FJ,0,2ab1f3c00a463a452d042a457c55214abd7f82feac1b545f6dcc94d6affdb2c1,2407.6178839206696,False,keypress,EXP8c_testRsp,398,[],choice-response,Lab,6347bd0363630e047ced3758,2022-10-13 03:23:47-04:00,single_300ms_early_delay_2_tone_Lab_2,4485,164,EXP8c_maintaskTrials_2_s
pass,6345b7f49677d36bd07c5a10,EXP8c_FJ,0,2ab1f3c00a463a452d042a457c55214abd7f82feac1b545f6dcc94d6affdb2c1,2407.6178839206696,False,keypress,EXP8c_testRsp,1621,[],choice-response,Lab,6347bd0363630e047ced3758,2022-10-13 03:23:47-04:00,single_300ms_ontime_delay_2_tone_Lab_2,5450,165,EXP8c_maintaskTrials_2_s
pass,6345b7f49677d36bd07c5a10,EXP8c_FJ,0,2ab1f3c00a463a452d042a457c55214abd7f82feac1b545f6dcc94d6affdb2c1,2407.6178839206696,False,keypress,EXP8c_testRsp,1883,[],choice-response,Lab,6347bd0363630e047ced3758,2022-10-13 03:23:47-04:00,single_300ms_early_delay_2_tone_Lab_5,7641,166,EXP8c_maintaskTrials_2_l
pass,6345b7f49677d36bd07c5a10,EXP8c_FJ,0,2ab1f3c00a463a452d042a457c55214abd7f82feac1b545f6dcc94d6affdb2c1,2407.6178839206696,True,keypress,cat_catchRsp,1306,['Cat meowing'],choice-response,Cat meowing,6347bd0363630e047ced3758,2022-10-13 03:23:47-04:00,cat_meowing,8691,167,Catch_cat
pass,6345b7f49677d36bd07c5a10,EXP8c_FJ,0,2ab1f3c00a463a452d042a457c55214abd7f82feac1b545f6dcc94d6affdb2c1,2407.6178839206696,False,keypress,EXP8c_testRsp,1540,[],choice-response,Lap,6347bd0363630e047ced3758,2022-10-13 03:23:47-04:00,single_300ms_ontime_delay_2_tone_Lab_5,5792,168,EXP8c_maintaskTrials_2_l
pass,6345b7f49677d36bd07c5a10,EXP8c_FJ,0,2ab1f3c00a463a452d042a457c55214abd7f82feac1b545f6dcc94d6affdb2c1,2407.6178839206696,False,keypress,EXP8c_testRsp,2347,[],choice-response,Lab,6347bd0363630e047ced3758,2022-10-13 03:23:47-04:00,single_300ms_ontime_delay_2_tone_Lab_4,6172,169,EXP8c_maintaskTrials_2_s
pass,6345b7f49677d36bd07c5a10,EXP8c_FJ,0,2ab1f3c00a463a452d042a457c55214abd7f82feac1b545f6dcc94d6affdb2c1,2407.6178839206696,False,keypress,EXP8c_testRsp,509,[],choice-response,Lab,6347bd0363630e047ced3758,2022-10-13 03:23:47-04:00,single_300ms_ontime_delay_2_tone_Lab_7,6522,170,EXP8c_maintaskTrials_2_l
pass,6345b7f49677d36bd07c5a10,EXP8c_FJ,0,2ab1f3c00a463a452d042a457c55214abd7f82feac1b545f6dcc94d6affdb2c1,2407.6178839206696,False,keypress,EXP8c_testRsp,1084,[],choice-response,Lab,6347bd0363630e047ced3758,2022-10-13 03:23:47-04:00,single_300ms_late_delay_2_tone_Lab_4,5044,171,EXP8c_maintaskTrials_2_s
pass,6345b7f49677d36bd07c5a10,EXP8c_FJ,0,2ab1f3c00a463a452d042a457c55214abd7f82feac1b545f6dcc94d6affdb2c1,2407.6178839206696,False,keypress,EXP8c_testRsp,2208,[],choice-response,Lab,6347bd0363630e047ced3758,2022-10-13 03:23:47-04:00,single_300ms_early_delay_2_tone_Lab_3,5916,172,EXP8c_maintaskTrials_2_s
pass,6345b7f49677d36bd07c5a10,EXP8c_FJ,0,2ab1f3c00a463a452d042a457c55214abd7f82feac1b545f6dcc94d6affdb2c1,2407.6178839206696,False,keypress,EXP8c_testRsp,2390,[],choice-response,Lab,6347bd0363630e047ced3758,2022-10-13 03:23:47-04:00,single_300ms_early_delay_2_tone_Lab_1,7163,173,EXP8c_maintaskTrials_2_s
pass,6345b7f49677d36bd07c5a10,EXP8c_FJ,0,2ab1f3c00a463a452d042a457c55214abd7f82feac1b545f6dcc94d6affdb2c1,2407.6178839206696,False,keypress,EXP8c_testRsp,1493,[],choice-response,Lab,6347bd0363630e047ced3758,2022-10-13 03:23:47-04:00,single_300ms_late_delay_2_tone_Lab_8,7335,174,EXP8c_maintaskTrials_2_l
pass,6345b7f49677d36bd07c5a10,EXP8c_FJ,0,2ab1f3c00a463a452d042a457c55214abd7f82feac1b545f6dcc94d6affdb2c1,2407.6178839206696,False,keypress,EXP8c_testRsp,2722,[],choice-response,Lab,6347bd0363630e047ced3758,2022-10-13 03:23:47-04:00,single_300ms_early_delay_2_tone_Lab_4,6446,175,EXP8c_maintaskTrials_2_s
pass,6345b7f49677d36bd07c5a10,EXP8c_FJ,0,2ab1f3c00a463a452d042a457c55214abd7f82feac1b545f6dcc94d6affdb2c1,2407.6178839206696,False,keypress,EXP8c_testRsp,2184,[],choice-response,Lab,6347bd0363630e047ced3758,2022-10-13 03:23:47-04:00,single_300ms_early_delay_2_tone_Lab_8,9096,176,EXP8c_maintaskTrials_2_l
pass,6345b7f49677d36bd07c5a10,EXP8c_FJ,0,2ab1f3c00a463a452d042a457c55214abd7f82feac1b545f6dcc94d6affdb2c1,2407.6178839206696,False,keypress,EXP8c_testRsp,2368,[],choice-response,Lab,6347bd0363630e047ced3758,2022-10-13 03:23:47-04:00,single_300ms_early_delay_2_tone_Lab_3,6083,177,EXP8c_maintaskTrials_2_s
pass,6345b7f49677d36bd07c5a10,EXP8c_FJ,0,2ab1f3c00a463a452d042a457c55214abd7f82feac1b545f6dcc94d6affdb2c1,2407.6178839206696,False,keypress,EXP8c_testRsp,2169,[],choice-response,Lab,6347bd0363630e047ced3758,2022-10-13 03:23:47-04:00,single_300ms_ontime_delay_2_tone_Lab_3,5977,178,EXP8c_maintaskTrials_2_s
pass,6345b7f49677d36bd07c5a10,EXP8c_FJ,0,2ab1f3c00a463a452d042a457c55214abd7f82feac1b545f6dcc94d6affdb2c1,2407.6178839206696,True,keypress,cat_catchRsp,632,['Cat meowing'],choice-response,Cat meowing,6347bd0363630e047ced3758,2022-10-13 03:23:47-04:00,cat_meowing,4018,179,Catch_cat
pass,6345b7f49677d36bd07c5a10,EXP8c_FJ,0,2ab1f3c00a463a452d042a457c55214abd7f82feac1b545f6dcc94d6affdb2c1,2407.6178839206696,False,keypress,EXP8c_testRsp,253,[],choice-response,Lab,6347bd0363630e047ced3758,2022-10-13 03:23:47-04:00,single_300ms_late_delay_2_tone_Lab_7,6666,180,EXP8c_maintaskTrials_2_l
pass,6345b7f49677d36bd07c5a10,EXP8c_FJ,0,2ab1f3c00a463a452d042a457c55214abd7f82feac1b545f6dcc94d6affdb2c1,2407.6178839206696,False,keypress,EXP8c_testRsp,571,[],choice-response,Lab,6347bd0363630e047ced3758,2022-10-13 03:23:47-04:00,single_300ms_early_delay_2_tone_Lab_1,4209,181,EXP8c_maintaskTrials_2_s
pass,6345b7f49677d36bd07c5a10,EXP8c_FJ,0,2ab1f3c00a463a452d042a457c55214abd7f82feac1b545f6dcc94d6affdb2c1,2407.6178839206696,False,keypress,EXP8c_testRsp,279,[],choice-response,Lab,6347bd0363630e047ced3758,2022-10-13 03:23:47-04:00,single_300ms_ontime_delay_2_tone_Lab_6,5003,182,EXP8c_maintaskTrials_2_l
pass,6345b7f49677d36bd07c5a10,EXP8c_FJ,0,2ab1f3c00a463a452d042a457c55214abd7f82feac1b545f6dcc94d6affdb2c1,2407.6178839206696,False,keypress,EXP8c_testRsp,229,[],choice-response,Lab,6347bd0363630e047ced3758,2022-10-13 03:23:47-04:00,single_300ms_early_delay_2_tone_Lab_2,3900,183,EXP8c_maintaskTrials_2_s
pass,6345b7f49677d36bd07c5a10,EXP8c_FJ,0,2ab1f3c00a463a452d042a457c55214abd7f82feac1b545f6dcc94d6affdb2c1,2407.6178839206696,False,keypress,EXP8c_testRsp,1587,[],choice-response,Lab,6347bd0363630e047ced3758,2022-10-13 03:23:47-04:00,single_300ms_ontime_delay_2_tone_Lab_7,9704,184,EXP8c_maintaskTrials_2_l
pass,6345b7f49677d36bd07c5a10,EXP8c_FJ,0,2ab1f3c00a463a452d042a457c55214abd7f82feac1b545f6dcc94d6affdb2c1,2407.6178839206696,False,keypress,EXP8c_testRsp,2373,[],choice-response,Lab,6347bd0363630e047ced3758,2022-10-13 03:23:47-04:00,single_300ms_ontime_delay_2_tone_Lab_2,8562,185,EXP8c_maintaskTrials_2_s
pass,6345b7f49677d36bd07c5a10,EXP8c_FJ,0,2ab1f3c00a463a452d042a457c55214abd7f82feac1b545f6dcc94d6affdb2c1,2407.6178839206696,False,keypress,EXP8c_testRsp,2986,[],choice-response,Lab,6347bd0363630e047ced3758,2022-10-13 03:23:47-04:00,single_300ms_late_delay_2_tone_Lab_3,9306,186,EXP8c_maintaskTrials_2_s
pass,6345b7f49677d36bd07c5a10,EXP8c_FJ,0,2ab1f3c00a463a452d042a457c55214abd7f82feac1b545f6dcc94d6affdb2c1,2407.6178839206696,False,keypress,EXP8c_testRsp,926,[],choice-response,Lab,6347bd0363630e047ced3758,2022-10-13 03:23:47-04:00,single_300ms_late_delay_2_tone_Lab_1,4808,187,EXP8c_maintaskTrials_2_s
pass,6345b7f49677d36bd07c5a10,EXP8c_FJ,0,2ab1f3c00a463a452d042a457c55214abd7f82feac1b545f6dcc94d6affdb2c1,2407.6178839206696,False,keypress,EXP8c_testRsp,489,[],choice-response,Lab,6347bd0363630e047ced3758,2022-10-13 03:23:47-04:00,single_300ms_early_delay_2_tone_Lab_5,4239,188,EXP8c_maintaskTrials_2_l
pass,6345b7f49677d36bd07c5a10,EXP8c_FJ,0,2ab1f3c00a463a452d042a457c55214abd7f82feac1b545f6dcc94d6affdb2c1,2407.6178839206696,False,keypress,EXP8c_testRsp,1514,[],choice-response,Lab,6347bd0363630e047ced3758,2022-10-13 03:23:47-04:00,single_300ms_late_delay_2_tone_Lab_4,5475,189,EXP8c_maintaskTrials_2_s
pass,6345b7f49677d36bd07c5a10,EXP8c_FJ,0,2ab1f3c00a463a452d042a457c55214abd7f82feac1b545f6dcc94d6affdb2c1,2407.6178839206696,False,keypress,EXP8c_testRsp,654,[],choice-response,Lab,6347bd0363630e047ced3758,2022-10-13 03:23:47-04:00,single_300ms_ontime_delay_2_tone_Lab_5,15538,190,EXP8c_maintaskTrials_2_l
pass,6345b7f49677d36bd07c5a10,EXP8c_FJ,0,2ab1f3c00a463a452d042a457c55214abd7f82feac1b545f6dcc94d6affdb2c1,2407.6178839206696,True,keypress,cat_catchRsp,292,['Cat meowing'],choice-response,Cat meowing,6347bd0363630e047ced3758,2022-10-13 03:23:47-04:00,cat_meowing,5176,191,Catch_cat
pass,6345b7f49677d36bd07c5a10,EXP8c_FJ,0,2ab1f3c00a463a452d042a457c55214abd7f82feac1b545f6dcc94d6affdb2c1,2407.6178839206696,False,keypress,EXP8c_testRsp,4774,[],choice-response,Lab,6347bd0363630e047ced3758,2022-10-13 03:23:47-04:00,single_300ms_ontime_delay_2_tone_Lab_1,8537,192,EXP8c_maintaskTrials_2_s
pass,6345b7f49677d36bd07c5a10,EXP8c_FJ,0,2ab1f3c00a463a452d042a457c55214abd7f82feac1b545f6dcc94d6affdb2c1,2407.6178839206696,False,keypress,EXP8c_testRsp,2776,[],choice-response,Lab,6347bd0363630e047ced3758,2022-10-13 03:23:47-04:00,single_300ms_ontime_delay_2_tone_Lab_4,8089,193,EXP8c_maintaskTrials_2_s
pass,6345b7f49677d36bd07c5a10,EXP8c_FJ,0,2ab1f3c00a463a452d042a457c55214abd7f82feac1b545f6dcc94d6affdb2c1,2407.6178839206696,False,keypress,EXP8c_testRsp,613,[],choice-response,Lab,6347bd0363630e047ced3758,2022-10-13 03:23:47-04:00,single_300ms_early_delay_2_tone_Lab_7,6864,194,EXP8c_maintaskTrials_2_l
pass,6345b7f49677d36bd07c5a10,EXP8c_FJ,0,2ab1f3c00a463a452d042a457c55214abd7f82feac1b545f6dcc94d6affdb2c1,2407.6178839206696,False,keypress,EXP8c_testRsp,1399,[],choice-response,Lab,6347bd0363630e047ced3758,2022-10-13 03:23:47-04:00,single_300ms_early_delay_2_tone_Lab_6,6112,195,EXP8c_maintaskTrials_2_l
pass,6345b7f49677d36bd07c5a10,EXP8c_FJ,0,2ab1f3c00a463a452d042a457c55214abd7f82feac1b545f6dcc94d6affdb2c1,2407.6178839206696,False,keypress,EXP8c_testRsp,323,[],choice-response,Lab,6347bd0363630e047ced3758,2022-10-13 03:23:47-04:00,single_300ms_ontime_delay_2_tone_Lab_8,7412,196,EXP8c_maintaskTrials_2_l
pass,6345b7f49677d36bd07c5a10,EXP8c_FJ,0,2ab1f3c00a463a452d042a457c55214abd7f82feac1b545f6dcc94d6affdb2c1,2407.6178839206696,False,keypress,EXP8c_testRsp,411,[],choice-response,Lab,6347bd0363630e047ced3758,2022-10-13 03:23:47-04:00,single_300ms_late_delay_2_tone_Lab_5,4364,197,EXP8c_maintaskTrials_2_l
pass,6345b7f49677d36bd07c5a10,EXP8c_FJ,0,2ab1f3c00a463a452d042a457c55214abd7f82feac1b545f6dcc94d6affdb2c1,2407.6178839206696,False,keypress,EXP8c_testRsp,478,[],choice-response,Lab,6347bd0363630e047ced3758,2022-10-13 03:23:47-04:00,single_300ms_late_delay_2_tone_Lab_2,8493,198,EXP8c_maintaskTrials_2_s
pass,6345b7f49677d36bd07c5a10,EXP8c_FJ,0,2ab1f3c00a463a452d042a457c55214abd7f82feac1b545f6dcc94d6affdb2c1,2407.6178839206696,False,keypress,EXP8c_testRsp,561,[],choice-response,Lap,6347bd0363630e047ced3758,2022-10-13 03:23:47-04:00,single_300ms_late_delay_2_tone_Lab_6,4575,199,EXP8c_maintaskTrials_2_l
pass,6345b7f49677d36bd07c5a10,EXP8c_FJ,0,2ab1f3c00a463a452d042a457c55214abd7f82feac1b545f6dcc94d6affdb2c1,2407.6178839206696,False,keypress,EXP8c_testRsp,325,[],choice-response,Lab,6347bd0363630e047ced3758,2022-10-13 03:23:47-04:00,single_300ms_early_delay_2_tone_Lab_5,4086,200,EXP8c_maintaskTrials_2_l
pass,6345b7f49677d36bd07c5a10,EXP8c_FJ,0,2ab1f3c00a463a452d042a457c55214abd7f82feac1b545f6dcc94d6affdb2c1,2407.6178839206696,False,keypress,EXP8c_testRsp,3853,[],choice-response,Lab,6347bd0363630e047ced3758,2022-10-13 03:23:47-04:00,single_300ms_early_delay_2_tone_Lab_8,7676,201,EXP8c_maintaskTrials_2_l
pass,6345b7f49677d36bd07c5a10,EXP8c_FJ,0,2ab1f3c00a463a452d042a457c55214abd7f82feac1b545f6dcc94d6affdb2c1,2407.6178839206696,False,keypress,EXP8c_testRsp,1677,[],choice-response,Lab,6347bd0363630e047ced3758,2022-10-13 03:23:47-04:00,single_300ms_late_delay_2_tone_Lab_6,7927,202,EXP8c_maintaskTrials_2_l
pass,6345b7f49677d36bd07c5a10,EXP8c_FJ,0,2ab1f3c00a463a452d042a457c55214abd7f82feac1b545f6dcc94d6affdb2c1,2407.6178839206696,True,keypress,cat_catchRsp,107,['Cat meowing'],choice-response,Cat meowing,6347bd0363630e047ced3758,2022-10-13 03:23:47-04:00,cat_meowing,7790,203,Catch_cat
pass,6345b7f49677d36bd07c5a10,EXP8c_FJ,0,2ab1f3c00a463a452d042a457c55214abd7f82feac1b545f6dcc94d6affdb2c1,2407.6178839206696,False,keypress,EXP8c_testRsp,2682,[],choice-response,Lab,6347bd0363630e047ced3758,2022-10-13 03:23:47-04:00,single_300ms_ontime_delay_2_tone_Lab_2,6891,204,EXP8c_maintaskTrials_2_s
pass,6345b7f49677d36bd07c5a10,EXP8c_FJ,0,2ab1f3c00a463a452d042a457c55214abd7f82feac1b545f6dcc94d6affdb2c1,2407.6178839206696,False,keypress,EXP8c_testRsp,2646,[],choice-response,Lab,6347bd0363630e047ced3758,2022-10-13 03:23:47-04:00,single_300ms_ontime_delay_2_tone_Lab_3,6442,205,EXP8c_maintaskTrials_2_s
pass,6345b7f49677d36bd07c5a10,EXP8c_FJ,0,2ab1f3c00a463a452d042a457c55214abd7f82feac1b545f6dcc94d6affdb2c1,2407.6178839206696,False,keypress,EXP8c_testRsp,364,[],choice-response,Lab,6347bd0363630e047ced3758,2022-10-13 03:23:47-04:00,single_300ms_early_delay_2_tone_Lab_4,4072,206,EXP8c_maintaskTrials_2_s
pass,6345b7f49677d36bd07c5a10,EXP8c_FJ,0,2ab1f3c00a463a452d042a457c55214abd7f82feac1b545f6dcc94d6affdb2c1,2407.6178839206696,False,keypress,EXP8c_testRsp,1475,[],choice-response,Lab,6347bd0363630e047ced3758,2022-10-13 03:23:47-04:00,single_300ms_ontime_delay_2_tone_Lab_7,5378,207,EXP8c_maintaskTrials_2_l
pass,6345b7f49677d36bd07c5a10,EXP8c_FJ,0,2ab1f3c00a463a452d042a457c55214abd7f82feac1b545f6dcc94d6affdb2c1,2407.6178839206696,False,keypress,EXP8c_testRsp,357,[],choice-response,Lab,6347bd0363630e047ced3758,2022-10-13 03:23:47-04:00,single_300ms_late_delay_2_tone_Lab_1,6118,208,EXP8c_maintaskTrials_2_s
pass,6345b7f49677d36bd07c5a10,EXP8c_FJ,0,2ab1f3c00a463a452d042a457c55214abd7f82feac1b545f6dcc94d6affdb2c1,2407.6178839206696,False,keypress,EXP8c_testRsp,466,[],choice-response,Lab,6347bd0363630e047ced3758,2022-10-13 03:23:47-04:00,single_300ms_ontime_delay_2_tone_Lab_1,4248,209,EXP8c_maintaskTrials_2_s
pass,6345b7f49677d36bd07c5a10,EXP8c_FJ,0,2ab1f3c00a463a452d042a457c55214abd7f82feac1b545f6dcc94d6affdb2c1,2407.6178839206696,False,keypress,EXP8c_testRsp,356,[],choice-response,Lab,6347bd0363630e047ced3758,2022-10-13 03:23:47-04:00,single_300ms_early_delay_2_tone_Lab_7,4645,210,EXP8c_maintaskTrials_2_l
pass,6345b7f49677d36bd07c5a10,EXP8c_FJ,0,2ab1f3c00a463a452d042a457c55214abd7f82feac1b545f6dcc94d6affdb2c1,2407.6178839206696,False,keypress,EXP8c_testRsp,4063,[],choice-response,Lab,6347bd0363630e047ced3758,2022-10-13 03:23:47-04:00,single_300ms_late_delay_2_tone_Lab_4,8597,211,EXP8c_maintaskTrials_2_s
pass,6345b7f49677d36bd07c5a10,EXP8c_FJ,0,2ab1f3c00a463a452d042a457c55214abd7f82feac1b545f6dcc94d6affdb2c1,2407.6178839206696,False,keypress,EXP8c_testRsp,3906,[],choice-response,Lab,6347bd0363630e047ced3758,2022-10-13 03:23:47-04:00,single_300ms_late_delay_2_tone_Lab_7,7923,212,EXP8c_maintaskTrials_2_l
pass,6345b7f49677d36bd07c5a10,EXP8c_FJ,0,2ab1f3c00a463a452d042a457c55214abd7f82feac1b545f6dcc94d6affdb2c1,2407.6178839206696,False,keypress,EXP8c_testRsp,3288,[],choice-response,Lab,6347bd0363630e047ced3758,2022-10-13 03:23:47-04:00,single_300ms_late_delay_2_tone_Lab_5,8266,213,EXP8c_maintaskTrials_2_l
pass,6345b7f49677d36bd07c5a10,EXP8c_FJ,0,2ab1f3c00a463a452d042a457c55214abd7f82feac1b545f6dcc94d6affdb2c1,2407.6178839206696,False,keypress,EXP8c_testRsp,522,[],choice-response,Lab,6347bd0363630e047ced3758,2022-10-13 03:23:47-04:00,single_300ms_early_delay_2_tone_Lab_2,4964,214,EXP8c_maintaskTrials_2_s
pass,6345b7f49677d36bd07c5a10,EXP8c_FJ,0,2ab1f3c00a463a452d042a457c55214abd7f82feac1b545f6dcc94d6affdb2c1,2407.6178839206696,True,keypress,cat_catchRsp,4313,['Cat meowing'],choice-response,Cat meowing,6347bd0363630e047ced3758,2022-10-13 03:23:47-04:00,cat_meowing,9388,215,Catch_cat
pass,6345b7f49677d36bd07c5a10,EXP8c_FJ,0,2ab1f3c00a463a452d042a457c55214abd7f82feac1b545f6dcc94d6affdb2c1,2407.6178839206696,False,keypress,EXP8c_testRsp,1930,[],choice-response,Lab,6347bd0363630e047ced3758,2022-10-13 03:23:47-04:00,single_300ms_early_delay_2_tone_Lab_6,5691,216,EXP8c_maintaskTrials_2_l
pass,6345b7f49677d36bd07c5a10,EXP8c_FJ,0,2ab1f3c00a463a452d042a457c55214abd7f82feac1b545f6dcc94d6affdb2c1,2407.6178839206696,False,keypress,EXP8c_testRsp,966,[],choice-response,Lab,6347bd0363630e047ced3758,2022-10-13 03:23:47-04:00,single_300ms_late_delay_2_tone_Lab_2,4822,217,EXP8c_maintaskTrials_2_s
pass,6345b7f49677d36bd07c5a10,EXP8c_FJ,0,2ab1f3c00a463a452d042a457c55214abd7f82feac1b545f6dcc94d6affdb2c1,2407.6178839206696,False,keypress,EXP8c_testRsp,250,[],choice-response,Lab,6347bd0363630e047ced3758,2022-10-13 03:23:47-04:00,single_300ms_early_delay_2_tone_Lab_1,3922,218,EXP8c_maintaskTrials_2_s
pass,6345b7f49677d36bd07c5a10,EXP8c_FJ,0,2ab1f3c00a463a452d042a457c55214abd7f82feac1b545f6dcc94d6affdb2c1,2407.6178839206696,False,keypress,EXP8c_testRsp,4820,[],choice-response,Lab,6347bd0363630e047ced3758,2022-10-13 03:23:47-04:00,single_300ms_ontime_delay_2_tone_Lab_8,8767,219,EXP8c_maintaskTrials_2_l
pass,6345b7f49677d36bd07c5a10,EXP8c_FJ,0,2ab1f3c00a463a452d042a457c55214abd7f82feac1b545f6dcc94d6affdb2c1,2407.6178839206696,False,keypress,EXP8c_testRsp,430,[],choice-response,Lab,6347bd0363630e047ced3758,2022-10-13 03:23:47-04:00,single_300ms_late_delay_2_tone_Lab_8,5592,220,EXP8c_maintaskTrials_2_l
pass,6345b7f49677d36bd07c5a10,EXP8c_FJ,0,2ab1f3c00a463a452d042a457c55214abd7f82feac1b545f6dcc94d6affdb2c1,2407.6178839206696,False,keypress,EXP8c_testRsp,952,[],choice-response,Lab,6347bd0363630e047ced3758,2022-10-13 03:23:47-04:00,single_300ms_ontime_delay_2_tone_Lab_5,4793,221,EXP8c_maintaskTrials_2_l
pass,6345b7f49677d36bd07c5a10,EXP8c_FJ,0,2ab1f3c00a463a452d042a457c55214abd7f82feac1b545f6dcc94d6affdb2c1,2407.6178839206696,False,keypress,EXP8c_testRsp,1258,[],choice-response,Lab,6347bd0363630e047ced3758,2022-10-13 03:23:47-04:00,single_300ms_early_delay_2_tone_Lab_3,5110,222,EXP8c_maintaskTrials_2_s
pass,6345b7f49677d36bd07c5a10,EXP8c_FJ,0,2ab1f3c00a463a452d042a457c55214abd7f82feac1b545f6dcc94d6affdb2c1,2407.6178839206696,False,keypress,EXP8c_testRsp,643,[],choice-response,Lab,6347bd0363630e047ced3758,2022-10-13 03:23:47-04:00,single_300ms_ontime_delay_2_tone_Lab_6,4514,223,EXP8c_maintaskTrials_2_l
pass,6345b7f49677d36bd07c5a10,EXP8c_FJ,0,2ab1f3c00a463a452d042a457c55214abd7f82feac1b545f6dcc94d6affdb2c1,2407.6178839206696,False,keypress,EXP8c_testRsp,428,[],choice-response,Lab,6347bd0363630e047ced3758,2022-10-13 03:23:47-04:00,single_300ms_late_delay_2_tone_Lab_3,7384,224,EXP8c_maintaskTrials_2_s
pass,6345b7f49677d36bd07c5a10,EXP8c_FJ,0,2ab1f3c00a463a452d042a457c55214abd7f82feac1b545f6dcc94d6affdb2c1,2407.6178839206696,False,keypress,EXP8c_testRsp,888,[],choice-response,Lab,6347bd0363630e047ced3758,2022-10-13 03:23:47-04:00,single_300ms_ontime_delay_2_tone_Lab_4,6604,225,EXP8c_maintaskTrials_2_s
pass,6345b7f49677d36bd07c5a10,EXP8c_FJ,0,2ab1f3c00a463a452d042a457c55214abd7f82feac1b545f6dcc94d6affdb2c1,2407.6178839206696,False,keypress,EXP8c_testRsp,1497,[],choice-response,Lab,6347bd0363630e047ced3758,2022-10-13 03:23:47-04:00,single_300ms_ontime_delay_2_tone_Lab_3,5304,226,EXP8c_maintaskTrials_2_s
pass,6345b7f49677d36bd07c5a10,EXP8c_FJ,0,2ab1f3c00a463a452d042a457c55214abd7f82feac1b545f6dcc94d6affdb2c1,2407.6178839206696,True,keypress,cat_catchRsp,6048,['Cat meowing'],choice-response,Cat meowing,6347bd0363630e047ced3758,2022-10-13 03:23:47-04:00,cat_meowing,9441,227,Catch_cat
pass,6345b7f49677d36bd07c5a10,EXP8c_FJ,0,2ab1f3c00a463a452d042a457c55214abd7f82feac1b545f6dcc94d6affdb2c1,2407.6178839206696,False,keypress,EXP8c_testRsp,2992,[],choice-response,Lab,6347bd0363630e047ced3758,2022-10-13 03:23:47-04:00,single_300ms_late_delay_2_tone_Lab_7,7132,228,EXP8c_maintaskTrials_2_l
pass,6345b7f49677d36bd07c5a10,EXP8c_FJ,0,2ab1f3c00a463a452d042a457c55214abd7f82feac1b545f6dcc94d6affdb2c1,2407.6178839206696,False,keypress,EXP8c_testRsp,1144,[],choice-response,Lab,6347bd0363630e047ced3758,2022-10-13 03:23:47-04:00,single_300ms_ontime_delay_2_tone_Lab_6,5018,229,EXP8c_maintaskTrials_2_l
pass,6345b7f49677d36bd07c5a10,EXP8c_FJ,0,2ab1f3c00a463a452d042a457c55214abd7f82feac1b545f6dcc94d6affdb2c1,2407.6178839206696,False,keypress,EXP8c_testRsp,1913,[],choice-response,Lab,6347bd0363630e047ced3758,2022-10-13 03:23:47-04:00,single_300ms_late_delay_2_tone_Lab_3,5829,230,EXP8c_maintaskTrials_2_s
pass,6345b7f49677d36bd07c5a10,EXP8c_FJ,0,2ab1f3c00a463a452d042a457c55214abd7f82feac1b545f6dcc94d6affdb2c1,2407.6178839206696,False,keypress,EXP8c_testRsp,1026,[],choice-response,Lab,6347bd0363630e047ced3758,2022-10-13 03:23:47-04:00,single_300ms_ontime_delay_2_tone_Lab_4,4872,231,EXP8c_maintaskTrials_2_s
pass,6345b7f49677d36bd07c5a10,EXP8c_FJ,0,2ab1f3c00a463a452d042a457c55214abd7f82feac1b545f6dcc94d6affdb2c1,2407.6178839206696,False,keypress,EXP8c_testRsp,973,[],choice-response,Lab,6347bd0363630e047ced3758,2022-10-13 03:23:47-04:00,single_300ms_late_delay_2_tone_Lab_8,5023,232,EXP8c_maintaskTrials_2_l
pass,6345b7f49677d36bd07c5a10,EXP8c_FJ,0,2ab1f3c00a463a452d042a457c55214abd7f82feac1b545f6dcc94d6affdb2c1,2407.6178839206696,False,keypress,EXP8c_testRsp,303,[],choice-response,Lab,6347bd0363630e047ced3758,2022-10-13 03:23:47-04:00,single_300ms_ontime_delay_2_tone_Lab_1,6332,233,EXP8c_maintaskTrials_2_s
pass,6345b7f49677d36bd07c5a10,EXP8c_FJ,0,2ab1f3c00a463a452d042a457c55214abd7f82feac1b545f6dcc94d6affdb2c1,2407.6178839206696,False,keypress,EXP8c_testRsp,708,[],choice-response,Lab,6347bd0363630e047ced3758,2022-10-13 03:23:47-04:00,single_300ms_ontime_delay_2_tone_Lab_5,4540,234,EXP8c_maintaskTrials_2_l
pass,6345b7f49677d36bd07c5a10,EXP8c_FJ,0,2ab1f3c00a463a452d042a457c55214abd7f82feac1b545f6dcc94d6affdb2c1,2407.6178839206696,False,keypress,EXP8c_testRsp,7112,[],choice-response,Lab,6347bd0363630e047ced3758,2022-10-13 03:23:47-04:00,single_300ms_ontime_delay_2_tone_Lab_7,11003,235,EXP8c_maintaskTrials_2_l
pass,6345b7f49677d36bd07c5a10,EXP8c_FJ,0,2ab1f3c00a463a452d042a457c55214abd7f82feac1b545f6dcc94d6affdb2c1,2407.6178839206696,False,keypress,EXP8c_testRsp,557,[],choice-response,Lab,6347bd0363630e047ced3758,2022-10-13 03:23:47-04:00,single_300ms_late_delay_2_tone_Lab_4,7136,236,EXP8c_maintaskTrials_2_s
pass,6345b7f49677d36bd07c5a10,EXP8c_FJ,0,2ab1f3c00a463a452d042a457c55214abd7f82feac1b545f6dcc94d6affdb2c1,2407.6178839206696,False,keypress,EXP8c_testRsp,2703,[],choice-response,Lab,6347bd0363630e047ced3758,2022-10-13 03:23:47-04:00,single_300ms_late_delay_2_tone_Lab_6,7102,237,EXP8c_maintaskTrials_2_l
pass,6345b7f49677d36bd07c5a10,EXP8c_FJ,0,2ab1f3c00a463a452d042a457c55214abd7f82feac1b545f6dcc94d6affdb2c1,2407.6178839206696,False,keypress,EXP8c_testRsp,1910,[],choice-response,Lab,6347bd0363630e047ced3758,2022-10-13 03:23:47-04:00,single_300ms_ontime_delay_2_tone_Lab_2,6232,238,EXP8c_maintaskTrials_2_s
pass,6345b7f49677d36bd07c5a10,EXP8c_FJ,0,2ab1f3c00a463a452d042a457c55214abd7f82feac1b545f6dcc94d6affdb2c1,2407.6178839206696,True,keypress,cat_catchRsp,5954,['Cat meowing'],choice-response,Cat meowing,6347bd0363630e047ced3758,2022-10-13 03:23:47-04:00,cat_meowing,9308,239,Catch_cat
pass,6345b7f49677d36bd07c5a10,EXP8c_FJ,0,2ab1f3c00a463a452d042a457c55214abd7f82feac1b545f6dcc94d6affdb2c1,2407.6178839206696,False,keypress,EXP8c_testRsp,1822,[],choice-response,Lab,6347bd0363630e047ced3758,2022-10-13 03:23:47-04:00,single_300ms_ontime_delay_2_tone_Lab_8,8485,240,EXP8c_maintaskTrials_2_l
pass,6345b7f49677d36bd07c5a10,EXP8c_FJ,0,2ab1f3c00a463a452d042a457c55214abd7f82feac1b545f6dcc94d6affdb2c1,2407.6178839206696,False,keypress,EXP8c_testRsp,759,[],choice-response,Lab,6347bd0363630e047ced3758,2022-10-13 03:23:47-04:00,single_300ms_late_delay_2_tone_Lab_5,4724,241,EXP8c_maintaskTrials_2_l
pass,6345b7f49677d36bd07c5a10,EXP8c_FJ,0,2ab1f3c00a463a452d042a457c55214abd7f82feac1b545f6dcc94d6affdb2c1,2407.6178839206696,False,keypress,EXP8c_testRsp,983,[],choice-response,Lab,6347bd0363630e047ced3758,2022-10-13 03:23:47-04:00,single_300ms_late_delay_2_tone_Lab_1,4859,242,EXP8c_maintaskTrials_2_s
pass,6345b7f49677d36bd07c5a10,EXP8c_FJ,0,2ab1f3c00a463a452d042a457c55214abd7f82feac1b545f6dcc94d6affdb2c1,2407.6178839206696,False,keypress,EXP8c_testRsp,801,[],choice-response,Lab,6347bd0363630e047ced3758,2022-10-13 03:23:47-04:00,single_300ms_early_delay_2_tone_Lab_6,4564,243,EXP8c_maintaskTrials_2_l
pass,6345b7f49677d36bd07c5a10,EXP8c_FJ,0,2ab1f3c00a463a452d042a457c55214abd7f82feac1b545f6dcc94d6affdb2c1,2407.6178839206696,False,keypress,EXP8c_testRsp,701,[],choice-response,Lab,6347bd0363630e047ced3758,2022-10-13 03:23:47-04:00,single_300ms_early_delay_2_tone_Lab_4,4613,244,EXP8c_maintaskTrials_2_s
pass,6345b7f49677d36bd07c5a10,EXP8c_FJ,0,2ab1f3c00a463a452d042a457c55214abd7f82feac1b545f6dcc94d6affdb2c1,2407.6178839206696,False,keypress,EXP8c_testRsp,4775,[],choice-response,Lab,6347bd0363630e047ced3758,2022-10-13 03:23:47-04:00,single_300ms_late_delay_2_tone_Lab_2,8897,245,EXP8c_maintaskTrials_2_s
pass,6345b7f49677d36bd07c5a10,EXP8c_FJ,0,2ab1f3c00a463a452d042a457c55214abd7f82feac1b545f6dcc94d6affdb2c1,2407.6178839206696,False,keypress,EXP8c_testRsp,2409,[],choice-response,Lab,6347bd0363630e047ced3758,2022-10-13 03:23:47-04:00,single_300ms_early_delay_2_tone_Lab_1,6054,246,EXP8c_maintaskTrials_2_s
pass,6345b7f49677d36bd07c5a10,EXP8c_FJ,0,2ab1f3c00a463a452d042a457c55214abd7f82feac1b545f6dcc94d6affdb2c1,2407.6178839206696,False,keypress,EXP8c_testRsp,741,[],choice-response,Lab,6347bd0363630e047ced3758,2022-10-13 03:23:47-04:00,single_300ms_early_delay_2_tone_Lab_3,5106,247,EXP8c_maintaskTrials_2_s
pass,6345b7f49677d36bd07c5a10,EXP8c_FJ,0,2ab1f3c00a463a452d042a457c55214abd7f82feac1b545f6dcc94d6affdb2c1,2407.6178839206696,False,keypress,EXP8c_testRsp,1703,[],choice-response,Lab,6347bd0363630e047ced3758,2022-10-13 03:23:47-04:00,single_300ms_early_delay_2_tone_Lab_8,6502,248,EXP8c_maintaskTrials_2_l
pass,6345b7f49677d36bd07c5a10,EXP8c_FJ,0,2ab1f3c00a463a452d042a457c55214abd7f82feac1b545f6dcc94d6affdb2c1,2407.6178839206696,False,keypress,EXP8c_testRsp,1072,[],choice-response,Lab,6347bd0363630e047ced3758,2022-10-13 03:23:47-04:00,single_300ms_early_delay_2_tone_Lab_2,4792,249,EXP8c_maintaskTrials_2_s
pass,6345b7f49677d36bd07c5a10,EXP8c_FJ,0,2ab1f3c00a463a452d042a457c55214abd7f82feac1b545f6dcc94d6affdb2c1,2407.6178839206696,False,keypress,EXP8c_testRsp,1546,[],choice-response,Lab,6347bd0363630e047ced3758,2022-10-13 03:23:47-04:00,single_300ms_early_delay_2_tone_Lab_5,5276,250,EXP8c_maintaskTrials_2_l
pass,6345b7f49677d36bd07c5a10,EXP8c_FJ,0,2ab1f3c00a463a452d042a457c55214abd7f82feac1b545f6dcc94d6affdb2c1,2407.6178839206696,True,keypress,cat_catchRsp,562,['Cat meowing'],choice-response,Cat meowing,6347bd0363630e047ced3758,2022-10-13 03:23:47-04:00,cat_meowing,6357,251,Catch_cat
pass,6345b7f49677d36bd07c5a10,EXP8c_FJ,0,2ab1f3c00a463a452d042a457c55214abd7f82feac1b545f6dcc94d6affdb2c1,2407.6178839206696,False,keypress,EXP8c_testRsp,284,[],choice-response,Lab,6347bd0363630e047ced3758,2022-10-13 03:23:47-04:00,single_300ms_early_delay_2_tone_Lab_7,4584,252,EXP8c_maintaskTrials_2_l
pass,6345b7f49677d36bd07c5a10,EXP8c_FJ,0,2ab1f3c00a463a452d042a457c55214abd7f82feac1b545f6dcc94d6affdb2c1,2407.6178839206696,False,keypress,EXP8c_testRsp,961,[],choice-response,Lab,6347bd0363630e047ced3758,2022-10-13 03:23:47-04:00,single_300ms_late_delay_2_tone_Lab_5,5765,253,EXP8c_maintaskTrials_2_l
pass,6345b7f49677d36bd07c5a10,EXP8c_FJ,0,2ab1f3c00a463a452d042a457c55214abd7f82feac1b545f6dcc94d6affdb2c1,2407.6178839206696,False,keypress,EXP8c_testRsp,1179,[],choice-response,Lab,6347bd0363630e047ced3758,2022-10-13 03:23:47-04:00,single_300ms_late_delay_2_tone_Lab_2,5150,254,EXP8c_maintaskTrials_2_s
pass,6345b7f49677d36bd07c5a10,EXP8c_FJ,0,2ab1f3c00a463a452d042a457c55214abd7f82feac1b545f6dcc94d6affdb2c1,2407.6178839206696,False,keypress,EXP8c_testRsp,617,[],choice-response,Lab,6347bd0363630e047ced3758,2022-10-13 03:23:47-04:00,single_300ms_late_delay_2_tone_Lab_6,5368,255,EXP8c_maintaskTrials_2_l
pass,6345b7f49677d36bd07c5a10,EXP8c_FJ,0,2ab1f3c00a463a452d042a457c55214abd7f82feac1b545f6dcc94d6affdb2c1,2407.6178839206696,False,keypress,EXP8c_testRsp,965,[],choice-response,Lab,6347bd0363630e047ced3758,2022-10-13 03:23:47-04:00,single_300ms_ontime_delay_2_tone_Lab_2,6739,256,EXP8c_maintaskTrials_2_s
pass,6345b7f49677d36bd07c5a10,EXP8c_FJ,0,2ab1f3c00a463a452d042a457c55214abd7f82feac1b545f6dcc94d6affdb2c1,2407.6178839206696,False,keypress,EXP8c_testRsp,543,[],choice-response,Lab,6347bd0363630e047ced3758,2022-10-13 03:23:47-04:00,single_300ms_early_delay_2_tone_Lab_5,4253,257,EXP8c_maintaskTrials_2_l
pass,6345b7f49677d36bd07c5a10,EXP8c_FJ,0,2ab1f3c00a463a452d042a457c55214abd7f82feac1b545f6dcc94d6affdb2c1,2407.6178839206696,False,keypress,EXP8c_testRsp,787,[],choice-response,Lab,6347bd0363630e047ced3758,2022-10-13 03:23:47-04:00,single_300ms_late_delay_2_tone_Lab_4,5769,258,EXP8c_maintaskTrials_2_s
pass,6345b7f49677d36bd07c5a10,EXP8c_FJ,0,2ab1f3c00a463a452d042a457c55214abd7f82feac1b545f6dcc94d6affdb2c1,2407.6178839206696,False,keypress,EXP8c_testRsp,2938,[],choice-response,Lab,6347bd0363630e047ced3758,2022-10-13 03:23:47-04:00,single_300ms_late_delay_2_tone_Lab_8,6985,259,EXP8c_maintaskTrials_2_l
pass,6345b7f49677d36bd07c5a10,EXP8c_FJ,0,2ab1f3c00a463a452d042a457c55214abd7f82feac1b545f6dcc94d6affdb2c1,2407.6178839206696,False,keypress,EXP8c_testRsp,1151,[],choice-response,Lab,6347bd0363630e047ced3758,2022-10-13 03:23:47-04:00,single_300ms_ontime_delay_2_tone_Lab_1,4918,260,EXP8c_maintaskTrials_2_s
pass,6345b7f49677d36bd07c5a10,EXP8c_FJ,0,2ab1f3c00a463a452d042a457c55214abd7f82feac1b545f6dcc94d6affdb2c1,2407.6178839206696,False,keypress,EXP8c_testRsp,776,[],choice-response,Lab,6347bd0363630e047ced3758,2022-10-13 03:23:47-04:00,single_300ms_ontime_delay_2_tone_Lab_5,4625,261,EXP8c_maintaskTrials_2_l
pass,6345b7f49677d36bd07c5a10,EXP8c_FJ,0,2ab1f3c00a463a452d042a457c55214abd7f82feac1b545f6dcc94d6affdb2c1,2407.6178839206696,False,keypress,EXP8c_testRsp,1153,[],choice-response,Lab,6347bd0363630e047ced3758,2022-10-13 03:23:47-04:00,single_300ms_ontime_delay_2_tone_Lab_6,5045,262,EXP8c_maintaskTrials_2_l
pass,6345b7f49677d36bd07c5a10,EXP8c_FJ,0,2ab1f3c00a463a452d042a457c55214abd7f82feac1b545f6dcc94d6affdb2c1,2407.6178839206696,False,keypress,EXP8c_testRsp,1842,[],choice-response,Lab,6347bd0363630e047ced3758,2022-10-13 03:23:47-04:00,single_300ms_early_delay_2_tone_Lab_1,5485,263,EXP8c_maintaskTrials_2_s
pass,6345b7f49677d36bd07c5a10,EXP8c_FJ,0,2ab1f3c00a463a452d042a457c55214abd7f82feac1b545f6dcc94d6affdb2c1,2407.6178839206696,True,keypress,bird_catchRsp,1505,['Bird singing'],choice-response,Bird singing,6347bd0363630e047ced3758,2022-10-13 03:23:47-04:00,songbird,5573,264,Catch_bird
pass,6345b7f49677d36bd07c5a10,EXP8c_FJ,0,2ab1f3c00a463a452d042a457c55214abd7f82feac1b545f6dcc94d6affdb2c1,2407.6178839206696,False,keypress,EXP8c_testRsp,561,[],choice-response,Lab,6347bd0363630e047ced3758,2022-10-13 03:23:47-04:00,single_300ms_ontime_delay_2_tone_Lab_3,5389,265,EXP8c_maintaskTrials_2_s
pass,6345b7f49677d36bd07c5a10,EXP8c_FJ,0,2ab1f3c00a463a452d042a457c55214abd7f82feac1b545f6dcc94d6affdb2c1,2407.6178839206696,False,keypress,EXP8c_testRsp,908,[],choice-response,Lab,6347bd0363630e047ced3758,2022-10-13 03:23:47-04:00,single_300ms_ontime_delay_2_tone_Lab_7,4825,266,EXP8c_maintaskTrials_2_l
pass,6345b7f49677d36bd07c5a10,EXP8c_FJ,0,2ab1f3c00a463a452d042a457c55214abd7f82feac1b545f6dcc94d6affdb2c1,2407.6178839206696,False,keypress,EXP8c_testRsp,394,[],choice-response,Lab,6347bd0363630e047ced3758,2022-10-13 03:23:47-04:00,single_300ms_early_delay_2_tone_Lab_7,5109,267,EXP8c_maintaskTrials_2_l
pass,6345b7f49677d36bd07c5a10,EXP8c_FJ,0,2ab1f3c00a463a452d042a457c55214abd7f82feac1b545f6dcc94d6affdb2c1,2407.6178839206696,False,keypress,EXP8c_testRsp,1295,[],choice-response,Lap,6347bd0363630e047ced3758,2022-10-13 03:23:47-04:00,single_300ms_late_delay_2_tone_Lab_7,5620,268,EXP8c_maintaskTrials_2_l
pass,6345b7f49677d36bd07c5a10,EXP8c_FJ,0,2ab1f3c00a463a452d042a457c55214abd7f82feac1b545f6dcc94d6affdb2c1,2407.6178839206696,False,keypress,EXP8c_testRsp,368,[],choice-response,Lab,6347bd0363630e047ced3758,2022-10-13 03:23:47-04:00,single_300ms_early_delay_2_tone_Lab_2,4051,269,EXP8c_maintaskTrials_2_s
pass,6345b7f49677d36bd07c5a10,EXP8c_FJ,0,2ab1f3c00a463a452d042a457c55214abd7f82feac1b545f6dcc94d6affdb2c1,2407.6178839206696,False,keypress,EXP8c_testRsp,533,[],choice-response,Lab,6347bd0363630e047ced3758,2022-10-13 03:23:47-04:00,single_300ms_late_delay_2_tone_Lab_1,4848,270,EXP8c_maintaskTrials_2_s
pass,6345b7f49677d36bd07c5a10,EXP8c_FJ,0,2ab1f3c00a463a452d042a457c55214abd7f82feac1b545f6dcc94d6affdb2c1,2407.6178839206696,False,keypress,EXP8c_testRsp,1351,[],choice-response,Lab,6347bd0363630e047ced3758,2022-10-13 03:23:47-04:00,single_300ms_late_delay_2_tone_Lab_3,5268,271,EXP8c_maintaskTrials_2_s
pass,6345b7f49677d36bd07c5a10,EXP8c_FJ,0,2ab1f3c00a463a452d042a457c55214abd7f82feac1b545f6dcc94d6affdb2c1,2407.6178839206696,False,keypress,EXP8c_testRsp,2317,[],choice-response,Lab,6347bd0363630e047ced3758,2022-10-13 03:23:47-04:00,single_300ms_early_delay_2_tone_Lab_6,6556,272,EXP8c_maintaskTrials_2_l
pass,6345b7f49677d36bd07c5a10,EXP8c_FJ,0,2ab1f3c00a463a452d042a457c55214abd7f82feac1b545f6dcc94d6affdb2c1,2407.6178839206696,False,keypress,EXP8c_testRsp,629,[],choice-response,Lab,6347bd0363630e047ced3758,2022-10-13 03:23:47-04:00,single_300ms_ontime_delay_2_tone_Lab_8,4579,273,EXP8c_maintaskTrials_2_l
pass,6345b7f49677d36bd07c5a10,EXP8c_FJ,0,2ab1f3c00a463a452d042a457c55214abd7f82feac1b545f6dcc94d6affdb2c1,2407.6178839206696,False,keypress,EXP8c_testRsp,628,[],choice-response,Lab,6347bd0363630e047ced3758,2022-10-13 03:23:47-04:00,single_300ms_ontime_delay_2_tone_Lab_4,4458,274,EXP8c_maintaskTrials_2_s
pass,6345b7f49677d36bd07c5a10,EXP8c_FJ,0,2ab1f3c00a463a452d042a457c55214abd7f82feac1b545f6dcc94d6affdb2c1,2407.6178839206696,False,keypress,EXP8c_testRsp,976,[],choice-response,Lab,6347bd0363630e047ced3758,2022-10-13 03:23:47-04:00,single_300ms_early_delay_2_tone_Lab_3,5428,275,EXP8c_maintaskTrials_2_s
pass,6345b7f49677d36bd07c5a10,EXP8c_FJ,0,2ab1f3c00a463a452d042a457c55214abd7f82feac1b545f6dcc94d6affdb2c1,2407.6178839206696,False,keypress,bird_catchRsp,811,['Bird singing'],choice-response,Frog croaking,6347bd0363630e047ced3758,2022-10-13 03:23:47-04:00,songbird,4512,276,Catch_bird
pass,6345b7f49677d36bd07c5a10,EXP8c_FJ,0,2ab1f3c00a463a452d042a457c55214abd7f82feac1b545f6dcc94d6affdb2c1,2407.6178839206696,False,keypress,EXP8c_testRsp,741,[],choice-response,Lab,6347bd0363630e047ced3758,2022-10-13 03:23:47-04:00,single_300ms_early_delay_2_tone_Lab_8,4575,277,EXP8c_maintaskTrials_2_l
pass,6345b7f49677d36bd07c5a10,EXP8c_FJ,0,2ab1f3c00a463a452d042a457c55214abd7f82feac1b545f6dcc94d6affdb2c1,2407.6178839206696,False,keypress,EXP8c_testRsp,218,[],choice-response,Lab,6347bd0363630e047ced3758,2022-10-13 03:23:47-04:00,single_300ms_early_delay_2_tone_Lab_4,3975,278,EXP8c_maintaskTrials_2_s
pass,6345b7f49677d36bd07c5a10,EXP8c_FJ,0,2ab1f3c00a463a452d042a457c55214abd7f82feac1b545f6dcc94d6affdb2c1,2407.6178839206696,False,keypress,EXP8c_testRsp,1000,[],choice-response,Lab,6347bd0363630e047ced3758,2022-10-13 03:23:47-04:00,single_300ms_ontime_delay_2_tone_Lab_3,4807,279,EXP8c_maintaskTrials_2_s
pass,6345b7f49677d36bd07c5a10,EXP8c_FJ,0,2ab1f3c00a463a452d042a457c55214abd7f82feac1b545f6dcc94d6affdb2c1,2407.6178839206696,False,keypress,EXP8c_testRsp,3150,[],choice-response,Lab,6347bd0363630e047ced3758,2022-10-13 03:23:47-04:00,single_300ms_early_delay_2_tone_Lab_5,6875,280,EXP8c_maintaskTrials_2_l
pass,6345b7f49677d36bd07c5a10,EXP8c_FJ,0,2ab1f3c00a463a452d042a457c55214abd7f82feac1b545f6dcc94d6affdb2c1,2407.6178839206696,False,keypress,EXP8c_testRsp,1837,[],choice-response,Lab,6347bd0363630e047ced3758,2022-10-13 03:23:47-04:00,single_300ms_late_delay_2_tone_Lab_2,6418,281,EXP8c_maintaskTrials_2_s
pass,6345b7f49677d36bd07c5a10,EXP8c_FJ,0,2ab1f3c00a463a452d042a457c55214abd7f82feac1b545f6dcc94d6affdb2c1,2407.6178839206696,False,keypress,EXP8c_testRsp,2650,[],choice-response,Lab,6347bd0363630e047ced3758,2022-10-13 03:23:47-04:00,single_300ms_ontime_delay_2_tone_Lab_4,6471,282,EXP8c_maintaskTrials_2_s
pass,6345b7f49677d36bd07c5a10,EXP8c_FJ,0,2ab1f3c00a463a452d042a457c55214abd7f82feac1b545f6dcc94d6affdb2c1,2407.6178839206696,False,keypress,EXP8c_testRsp,689,[],choice-response,Lab,6347bd0363630e047ced3758,2022-10-13 03:23:47-04:00,single_300ms_late_delay_2_tone_Lab_5,5418,283,EXP8c_maintaskTrials_2_l
pass,6345b7f49677d36bd07c5a10,EXP8c_FJ,0,2ab1f3c00a463a452d042a457c55214abd7f82feac1b545f6dcc94d6affdb2c1,2407.6178839206696,False,keypress,EXP8c_testRsp,849,[],choice-response,Lab,6347bd0363630e047ced3758,2022-10-13 03:23:47-04:00,single_300ms_ontime_delay_2_tone_Lab_7,4767,284,EXP8c_maintaskTrials_2_l
pass,6345b7f49677d36bd07c5a10,EXP8c_FJ,0,2ab1f3c00a463a452d042a457c55214abd7f82feac1b545f6dcc94d6affdb2c1,2407.6178839206696,False,keypress,EXP8c_testRsp,458,[],choice-response,Lab,6347bd0363630e047ced3758,2022-10-13 03:23:47-04:00,single_300ms_ontime_delay_2_tone_Lab_5,4320,285,EXP8c_maintaskTrials_2_l
pass,6345b7f49677d36bd07c5a10,EXP8c_FJ,0,2ab1f3c00a463a452d042a457c55214abd7f82feac1b545f6dcc94d6affdb2c1,2407.6178839206696,False,keypress,EXP8c_testRsp,1163,[],choice-response,Lab,6347bd0363630e047ced3758,2022-10-13 03:23:47-04:00,single_300ms_ontime_delay_2_tone_Lab_2,6830,286,EXP8c_maintaskTrials_2_s
pass,6345b7f49677d36bd07c5a10,EXP8c_FJ,0,2ab1f3c00a463a452d042a457c55214abd7f82feac1b545f6dcc94d6affdb2c1,2407.6178839206696,False,keypress,EXP8c_testRsp,1762,[],choice-response,Lab,6347bd0363630e047ced3758,2022-10-13 03:23:47-04:00,single_300ms_ontime_delay_2_tone_Lab_8,5709,287,EXP8c_maintaskTrials_2_l
pass,6345b7f49677d36bd07c5a10,EXP8c_FJ,0,2ab1f3c00a463a452d042a457c55214abd7f82feac1b545f6dcc94d6affdb2c1,2407.6178839206696,False,keypress,bird_catchRsp,366,['Bird singing'],choice-response,Frog croaking,6347bd0363630e047ced3758,2022-10-13 03:23:47-04:00,songbird,4786,288,Catch_bird
pass,6345b7f49677d36bd07c5a10,EXP8c_FJ,0,2ab1f3c00a463a452d042a457c55214abd7f82feac1b545f6dcc94d6affdb2c1,2407.6178839206696,False,keypress,EXP8c_testRsp,540,[],choice-response,Lab,6347bd0363630e047ced3758,2022-10-13 03:23:47-04:00,single_300ms_late_delay_2_tone_Lab_3,4444,289,EXP8c_maintaskTrials_2_s
pass,6345b7f49677d36bd07c5a10,EXP8c_FJ,0,2ab1f3c00a463a452d042a457c55214abd7f82feac1b545f6dcc94d6affdb2c1,2407.6178839206696,False,keypress,EXP8c_testRsp,256,[],choice-response,Lab,6347bd0363630e047ced3758,2022-10-13 03:23:47-04:00,single_300ms_late_delay_2_tone_Lab_8,4316,290,EXP8c_maintaskTrials_2_l
pass,6345b7f49677d36bd07c5a10,EXP8c_FJ,0,2ab1f3c00a463a452d042a457c55214abd7f82feac1b545f6dcc94d6affdb2c1,2407.6178839206696,False,keypress,EXP8c_testRsp,719,[],choice-response,Lab,6347bd0363630e047ced3758,2022-10-13 03:23:47-04:00,single_300ms_early_delay_2_tone_Lab_2,4404,291,EXP8c_maintaskTrials_2_s
pass,6345b7f49677d36bd07c5a10,EXP8c_FJ,0,2ab1f3c00a463a452d042a457c55214abd7f82feac1b545f6dcc94d6affdb2c1,2407.6178839206696,False,keypress,EXP8c_testRsp,1132,[],choice-response,Lab,6347bd0363630e047ced3758,2022-10-13 03:23:47-04:00,single_300ms_early_delay_2_tone_Lab_4,5652,292,EXP8c_maintaskTrials_2_s
pass,6345b7f49677d36bd07c5a10,EXP8c_FJ,0,2ab1f3c00a463a452d042a457c55214abd7f82feac1b545f6dcc94d6affdb2c1,2407.6178839206696,False,keypress,EXP8c_testRsp,1152,[],choice-response,Lab,6347bd0363630e047ced3758,2022-10-13 03:23:47-04:00,single_300ms_early_delay_2_tone_Lab_6,6011,293,EXP8c_maintaskTrials_2_l
pass,6345b7f49677d36bd07c5a10,EXP8c_FJ,0,2ab1f3c00a463a452d042a457c55214abd7f82feac1b545f6dcc94d6affdb2c1,2407.6178839206696,False,keypress,EXP8c_testRsp,581,[],choice-response,Lab,6347bd0363630e047ced3758,2022-10-13 03:23:47-04:00,single_300ms_ontime_delay_2_tone_Lab_1,4337,294,EXP8c_maintaskTrials_2_s
pass,6345b7f49677d36bd07c5a10,EXP8c_FJ,0,2ab1f3c00a463a452d042a457c55214abd7f82feac1b545f6dcc94d6affdb2c1,2407.6178839206696,False,keypress,EXP8c_testRsp,403,[],choice-response,Lab,6347bd0363630e047ced3758,2022-10-13 03:23:47-04:00,single_300ms_early_delay_2_tone_Lab_8,4211,295,EXP8c_maintaskTrials_2_l
pass,6345b7f49677d36bd07c5a10,EXP8c_FJ,0,2ab1f3c00a463a452d042a457c55214abd7f82feac1b545f6dcc94d6affdb2c1,2407.6178839206696,False,keypress,EXP8c_testRsp,274,[],choice-response,Lab,6347bd0363630e047ced3758,2022-10-13 03:23:47-04:00,single_300ms_early_delay_2_tone_Lab_1,4772,296,EXP8c_maintaskTrials_2_s
pass,6345b7f49677d36bd07c5a10,EXP8c_FJ,0,2ab1f3c00a463a452d042a457c55214abd7f82feac1b545f6dcc94d6affdb2c1,2407.6178839206696,False,keypress,EXP8c_testRsp,3803,[],choice-response,Lab,6347bd0363630e047ced3758,2022-10-13 03:23:47-04:00,single_300ms_early_delay_2_tone_Lab_7,8970,297,EXP8c_maintaskTrials_2_l
pass,6345b7f49677d36bd07c5a10,EXP8c_FJ,0,2ab1f3c00a463a452d042a457c55214abd7f82feac1b545f6dcc94d6affdb2c1,2407.6178839206696,False,keypress,EXP8c_testRsp,808,[],choice-response,Lab,6347bd0363630e047ced3758,2022-10-13 03:23:47-04:00,single_300ms_ontime_delay_2_tone_Lab_6,4694,298,EXP8c_maintaskTrials_2_l
pass,6345b7f49677d36bd07c5a10,EXP8c_FJ,0,2ab1f3c00a463a452d042a457c55214abd7f82feac1b545f6dcc94d6affdb2c1,2407.6178839206696,False,keypress,EXP8c_testRsp,932,[],choice-response,Lab,6347bd0363630e047ced3758,2022-10-13 03:23:47-04:00,single_300ms_late_delay_2_tone_Lab_7,7744,299,EXP8c_maintaskTrials_2_l
pass,6345b7f49677d36bd07c5a10,EXP8c_FJ,0,2ab1f3c00a463a452d042a457c55214abd7f82feac1b545f6dcc94d6affdb2c1,2407.6178839206696,False,keypress,bird_catchRsp,3416,['Bird singing'],choice-response,Frog croaking,6347bd0363630e047ced3758,2022-10-13 03:23:47-04:00,songbird,6753,300,Catch_bird
pass,6345b7f49677d36bd07c5a10,EXP8c_FJ,0,2ab1f3c00a463a452d042a457c55214abd7f82feac1b545f6dcc94d6affdb2c1,2407.6178839206696,False,keypress,EXP8c_testRsp,1490,[],choice-response,Lab,6347bd0363630e047ced3758,2022-10-13 03:23:47-04:00,single_300ms_late_delay_2_tone_Lab_4,5430,301,EXP8c_maintaskTrials_2_s
pass,6345b7f49677d36bd07c5a10,EXP8c_FJ,0,2ab1f3c00a463a452d042a457c55214abd7f82feac1b545f6dcc94d6affdb2c1,2407.6178839206696,False,keypress,EXP8c_testRsp,907,[],choice-response,Lab,6347bd0363630e047ced3758,2022-10-13 03:23:47-04:00,single_300ms_early_delay_2_tone_Lab_3,4628,302,EXP8c_maintaskTrials_2_s
pass,6345b7f49677d36bd07c5a10,EXP8c_FJ,0,2ab1f3c00a463a452d042a457c55214abd7f82feac1b545f6dcc94d6affdb2c1,2407.6178839206696,False,keypress,EXP8c_testRsp,14,[],choice-response,Lab,6347bd0363630e047ced3758,2022-10-13 03:23:47-04:00,single_300ms_late_delay_2_tone_Lab_1,4314,303,EXP8c_maintaskTrials_2_s
pass,6345b7f49677d36bd07c5a10,EXP8c_FJ,0,2ab1f3c00a463a452d042a457c55214abd7f82feac1b545f6dcc94d6affdb2c1,2407.6178839206696,False,keypress,EXP8c_testRsp,1020,[],choice-response,Lab,6347bd0363630e047ced3758,2022-10-13 03:23:47-04:00,single_300ms_late_delay_2_tone_Lab_6,4989,304,EXP8c_maintaskTrials_2_l
pass,6345b7f49677d36bd07c5a10,EXP8c_FJ,0,2ab1f3c00a463a452d042a457c55214abd7f82feac1b545f6dcc94d6affdb2c1,2407.6178839206696,False,keypress,EXP8c_testRsp,5413,[],choice-response,Lab,6347bd0363630e047ced3758,2022-10-13 03:23:47-04:00,single_300ms_late_delay_2_tone_Lab_1,9553,305,EXP8c_maintaskTrials_2_s
pass,6345b7f49677d36bd07c5a10,EXP8c_FJ,0,2ab1f3c00a463a452d042a457c55214abd7f82feac1b545f6dcc94d6affdb2c1,2407.6178839206696,False,keypress,EXP8c_testRsp,698,[],choice-response,Lab,6347bd0363630e047ced3758,2022-10-13 03:23:47-04:00,single_300ms_ontime_delay_2_tone_Lab_7,7626,306,EXP8c_maintaskTrials_2_l
pass,6345b7f49677d36bd07c5a10,EXP8c_FJ,0,2ab1f3c00a463a452d042a457c55214abd7f82feac1b545f6dcc94d6affdb2c1,2407.6178839206696,False,keypress,EXP8c_testRsp,758,[],choice-response,Lab,6347bd0363630e047ced3758,2022-10-13 03:23:47-04:00,single_300ms_early_delay_2_tone_Lab_5,5116,307,EXP8c_maintaskTrials_2_l
pass,6345b7f49677d36bd07c5a10,EXP8c_FJ,0,2ab1f3c00a463a452d042a457c55214abd7f82feac1b545f6dcc94d6affdb2c1,2407.6178839206696,False,keypress,EXP8c_testRsp,323,[],choice-response,Lab,6347bd0363630e047ced3758,2022-10-13 03:23:47-04:00,single_300ms_ontime_delay_2_tone_Lab_5,4351,308,EXP8c_maintaskTrials_2_l
pass,6345b7f49677d36bd07c5a10,EXP8c_FJ,0,2ab1f3c00a463a452d042a457c55214abd7f82feac1b545f6dcc94d6affdb2c1,2407.6178839206696,False,keypress,EXP8c_testRsp,388,[],choice-response,Lab,6347bd0363630e047ced3758,2022-10-13 03:23:47-04:00,single_300ms_late_delay_2_tone_Lab_5,4352,309,EXP8c_maintaskTrials_2_l
pass,6345b7f49677d36bd07c5a10,EXP8c_FJ,0,2ab1f3c00a463a452d042a457c55214abd7f82feac1b545f6dcc94d6affdb2c1,2407.6178839206696,False,keypress,EXP8c_testRsp,893,[],choice-response,Lab,6347bd0363630e047ced3758,2022-10-13 03:23:47-04:00,single_300ms_ontime_delay_2_tone_Lab_3,6705,310,EXP8c_maintaskTrials_2_s
pass,6345b7f49677d36bd07c5a10,EXP8c_FJ,0,2ab1f3c00a463a452d042a457c55214abd7f82feac1b545f6dcc94d6affdb2c1,2407.6178839206696,False,keypress,EXP8c_testRsp,2429,[],choice-response,Lab,6347bd0363630e047ced3758,2022-10-13 03:23:47-04:00,single_300ms_late_delay_2_tone_Lab_6,6427,311,EXP8c_maintaskTrials_2_l
pass,6345b7f49677d36bd07c5a10,EXP8c_FJ,0,2ab1f3c00a463a452d042a457c55214abd7f82feac1b545f6dcc94d6affdb2c1,2407.6178839206696,False,keypress,bird_catchRsp,1689,['Bird singing'],choice-response,Frog croaking,6347bd0363630e047ced3758,2022-10-13 03:23:47-04:00,songbird,5017,312,Catch_bird
pass,6345b7f49677d36bd07c5a10,EXP8c_FJ,0,2ab1f3c00a463a452d042a457c55214abd7f82feac1b545f6dcc94d6affdb2c1,2407.6178839206696,False,keypress,EXP8c_testRsp,865,[],choice-response,Lab,6347bd0363630e047ced3758,2022-10-13 03:23:47-04:00,single_300ms_early_delay_2_tone_Lab_6,4629,313,EXP8c_maintaskTrials_2_l
pass,6345b7f49677d36bd07c5a10,EXP8c_FJ,0,2ab1f3c00a463a452d042a457c55214abd7f82feac1b545f6dcc94d6affdb2c1,2407.6178839206696,False,keypress,EXP8c_testRsp,234,[],choice-response,Lab,6347bd0363630e047ced3758,2022-10-13 03:23:47-04:00,single_300ms_ontime_delay_2_tone_Lab_8,4165,314,EXP8c_maintaskTrials_2_l
pass,6345b7f49677d36bd07c5a10,EXP8c_FJ,0,2ab1f3c00a463a452d042a457c55214abd7f82feac1b545f6dcc94d6affdb2c1,2407.6178839206696,False,keypress,EXP8c_testRsp,982,[],choice-response,Lab,6347bd0363630e047ced3758,2022-10-13 03:23:47-04:00,single_300ms_ontime_delay_2_tone_Lab_6,4860,315,EXP8c_maintaskTrials_2_l
pass,6345b7f49677d36bd07c5a10,EXP8c_FJ,0,2ab1f3c00a463a452d042a457c55214abd7f82feac1b545f6dcc94d6affdb2c1,2407.6178839206696,False,keypress,EXP8c_testRsp,425,[],choice-response,Lab,6347bd0363630e047ced3758,2022-10-13 03:23:47-04:00,single_300ms_early_delay_2_tone_Lab_3,7096,316,EXP8c_maintaskTrials_2_s
pass,6345b7f49677d36bd07c5a10,EXP8c_FJ,0,2ab1f3c00a463a452d042a457c55214abd7f82feac1b545f6dcc94d6affdb2c1,2407.6178839206696,False,keypress,EXP8c_testRsp,276,[],choice-response,Lab,6347bd0363630e047ced3758,2022-10-13 03:23:47-04:00,single_300ms_early_delay_2_tone_Lab_1,4134,317,EXP8c_maintaskTrials_2_s
pass,6345b7f49677d36bd07c5a10,EXP8c_FJ,0,2ab1f3c00a463a452d042a457c55214abd7f82feac1b545f6dcc94d6affdb2c1,2407.6178839206696,False,keypress,EXP8c_testRsp,4330,[],choice-response,Lab,6347bd0363630e047ced3758,2022-10-13 03:23:47-04:00,single_300ms_early_delay_2_tone_Lab_4,8035,318,EXP8c_maintaskTrials_2_s
pass,6345b7f49677d36bd07c5a10,EXP8c_FJ,0,2ab1f3c00a463a452d042a457c55214abd7f82feac1b545f6dcc94d6affdb2c1,2407.6178839206696,False,keypress,EXP8c_testRsp,292,[],choice-response,Lab,6347bd0363630e047ced3758,2022-10-13 03:23:47-04:00,single_300ms_ontime_delay_2_tone_Lab_4,6045,319,EXP8c_maintaskTrials_2_s
pass,6345b7f49677d36bd07c5a10,EXP8c_FJ,0,2ab1f3c00a463a452d042a457c55214abd7f82feac1b545f6dcc94d6affdb2c1,2407.6178839206696,False,keypress,EXP8c_testRsp,1640,[],choice-response,Lap,6347bd0363630e047ced3758,2022-10-13 03:23:47-04:00,single_300ms_late_delay_2_tone_Lab_2,6584,320,EXP8c_maintaskTrials_2_s
pass,6345b7f49677d36bd07c5a10,EXP8c_FJ,0,2ab1f3c00a463a452d042a457c55214abd7f82feac1b545f6dcc94d6affdb2c1,2407.6178839206696,False,keypress,EXP8c_testRsp,2680,[],choice-response,Lap,6347bd0363630e047ced3758,2022-10-13 03:23:47-04:00,single_300ms_early_delay_2_tone_Lab_7,6472,321,EXP8c_maintaskTrials_2_l
pass,6345b7f49677d36bd07c5a10,EXP8c_FJ,0,2ab1f3c00a463a452d042a457c55214abd7f82feac1b545f6dcc94d6affdb2c1,2407.6178839206696,False,keypress,EXP8c_testRsp,287,[],choice-response,Lap,6347bd0363630e047ced3758,2022-10-13 03:23:47-04:00,single_300ms_late_delay_2_tone_Lab_7,5728,322,EXP8c_maintaskTrials_2_l
pass,6345b7f49677d36bd07c5a10,EXP8c_FJ,0,2ab1f3c00a463a452d042a457c55214abd7f82feac1b545f6dcc94d6affdb2c1,2407.6178839206696,False,keypress,EXP8c_testRsp,231,[],choice-response,Lap,6347bd0363630e047ced3758,2022-10-13 03:23:47-04:00,single_300ms_early_delay_2_tone_Lab_8,4370,323,EXP8c_maintaskTrials_2_l
pass,6345b7f49677d36bd07c5a10,EXP8c_FJ,0,2ab1f3c00a463a452d042a457c55214abd7f82feac1b545f6dcc94d6affdb2c1,2407.6178839206696,True,keypress,bird_catchRsp,1751,['Bird singing'],choice-response,Bird singing,6347bd0363630e047ced3758,2022-10-13 03:23:47-04:00,songbird,5100,324,Catch_bird
pass,6345b7f49677d36bd07c5a10,EXP8c_FJ,0,2ab1f3c00a463a452d042a457c55214abd7f82feac1b545f6dcc94d6affdb2c1,2407.6178839206696,False,keypress,EXP8c_testRsp,319,[],choice-response,Lap,6347bd0363630e047ced3758,2022-10-13 03:23:47-04:00,single_300ms_early_delay_2_tone_Lab_2,3983,325,EXP8c_maintaskTrials_2_s
pass,6345b7f49677d36bd07c5a10,EXP8c_FJ,0,2ab1f3c00a463a452d042a457c55214abd7f82feac1b545f6dcc94d6affdb2c1,2407.6178839206696,False,keypress,EXP8c_testRsp,444,[],choice-response,Lap,6347bd0363630e047ced3758,2022-10-13 03:23:47-04:00,single_300ms_ontime_delay_2_tone_Lab_1,4989,326,EXP8c_maintaskTrials_2_s
pass,6345b7f49677d36bd07c5a10,EXP8c_FJ,0,2ab1f3c00a463a452d042a457c55214abd7f82feac1b545f6dcc94d6affdb2c1,2407.6178839206696,False,keypress,EXP8c_testRsp,843,[],choice-response,Lap,6347bd0363630e047ced3758,2022-10-13 03:23:47-04:00,single_300ms_ontime_delay_2_tone_Lab_2,4649,327,EXP8c_maintaskTrials_2_s
pass,6345b7f49677d36bd07c5a10,EXP8c_FJ,0,2ab1f3c00a463a452d042a457c55214abd7f82feac1b545f6dcc94d6affdb2c1,2407.6178839206696,False,keypress,EXP8c_testRsp,313,[],choice-response,Lap,6347bd0363630e047ced3758,2022-10-13 03:23:47-04:00,single_300ms_late_delay_2_tone_Lab_4,6576,328,EXP8c_maintaskTrials_2_s
pass,6345b7f49677d36bd07c5a10,EXP8c_FJ,0,2ab1f3c00a463a452d042a457c55214abd7f82feac1b545f6dcc94d6affdb2c1,2407.6178839206696,False,keypress,EXP8c_testRsp,336,[],choice-response,Lap,6347bd0363630e047ced3758,2022-10-13 03:23:47-04:00,single_300ms_late_delay_2_tone_Lab_3,4227,329,EXP8c_maintaskTrials_2_s
pass,6345b7f49677d36bd07c5a10,EXP8c_FJ,0,2ab1f3c00a463a452d042a457c55214abd7f82feac1b545f6dcc94d6affdb2c1,2407.6178839206696,False,keypress,EXP8c_testRsp,1008,[],choice-response,Lap,6347bd0363630e047ced3758,2022-10-13 03:23:47-04:00,single_300ms_late_delay_2_tone_Lab_8,5494,330,EXP8c_maintaskTrials_2_l
pass,6345b7f49677d36bd07c5a10,EXP8c_FJ,0,2ab1f3c00a463a452d042a457c55214abd7f82feac1b545f6dcc94d6affdb2c1,2407.6178839206696,False,keypress,EXP8c_testRsp,774,[],choice-response,Lap,6347bd0363630e047ced3758,2022-10-13 03:23:47-04:00,single_300ms_late_delay_2_tone_Lab_4,7332,331,EXP8c_maintaskTrials_2_s
pass,6345b7f49677d36bd07c5a10,EXP8c_FJ,0,2ab1f3c00a463a452d042a457c55214abd7f82feac1b545f6dcc94d6affdb2c1,2407.6178839206696,False,keypress,EXP8c_testRsp,307,[],choice-response,Lap,6347bd0363630e047ced3758,2022-10-13 03:23:47-04:00,single_300ms_late_delay_2_tone_Lab_5,8238,332,EXP8c_maintaskTrials_2_l
pass,6345b7f49677d36bd07c5a10,EXP8c_FJ,0,2ab1f3c00a463a452d042a457c55214abd7f82feac1b545f6dcc94d6affdb2c1,2407.6178839206696,False,keypress,EXP8c_testRsp,332,[],choice-response,Lap,6347bd0363630e047ced3758,2022-10-13 03:23:47-04:00,single_300ms_early_delay_2_tone_Lab_5,8452,333,EXP8c_maintaskTrials_2_l
